trial,fixationTime,imgID,category,seenBefore,block,day,onsetFixation,onsetStimulus_oldnew,onsetResponse_oldnew,onsetStimulus_outcome,onsetResponse_outcome,onsetEndOfTrial,response_oldnew,responseTime_oldnew,response_outcome,responseTime_outcome,tendencyCorrect_oldnew
1,1.57710010638909,sc_189.png,scene,1,1,2,46.5482570624533,48.149575630322,49.6248988358386,,,49.6283908672272,maybeNew,1.47532320551659,,,0
2,1.9562490953408,cl_142.png,clothing,1,1,2,49.6341275874204,51.6024022649101,52.6780258310102,52.6866245800411,54.8821424312907,54.8830106092189,defOld,1.07562356610015,maybeUnshocked,2.19551785124963,1
3,1.53159549587253,sc_086.png,scene,0,1,2,54.8884240267134,56.4230166607852,57.7832604065886,,,57.7842094856589,defNew,1.36024374580347,,,1
4,1.96130925309483,sc_229.png,scene,1,1,2,57.7908059314223,59.7590878537903,60.9843924188385,,,60.9850601551311,maybeNew,1.22530456504819,,,0
5,1.57925443091813,ve_135.png,vehicle,1,1,2,60.9934334073216,62.5780570585291,63.6085097134198,,,63.6089564809211,defNew,1.03045265489072,,,0
6,1.54867215524273,sc_210.png,scene,1,1,2,63.6122471490448,65.1801858452986,66.4256390209152,66.4312199762228,68.1217145608473,68.1223916551075,maybeOld,1.2454531756166,maybeUnshocked,1.6904945846245,1
7,1.51142657014978,cl_228.png,clothing,1,1,2,68.1326159737293,69.6505272752868,71.1208484960086,71.1350200658781,73.255949479048,73.2586554411303,defOld,1.47032122072187,maybeUnshocked,2.12092941316996,1
8,1.72634915250754,cl_161.png,clothing,0,1,2,73.2701337274548,75.0048984273885,76.0400605551088,,,76.0405891293619,defNew,1.03516212772024,,,1
9,1.60626797856099,ve_093.png,vehicle,1,1,2,76.0557595868406,77.6737570722642,79.409201297437,79.4251988785331,81.440308088454,81.4408979423038,defOld,1.73544422517284,maybeShocked,2.01510920992087,1
10,1.90954769772346,to_137.png,tool,1,1,2,81.4435027619388,83.3617527615615,84.3573958888335,,,84.3582676892008,defNew,0.995643127271933,,,0
11,1.78205699755752,cl_216.png,clothing,0,1,2,84.3625527168847,86.1473312273679,87.0725453823711,,,87.0734799716847,defNew,0.925214155003232,,,1
12,1.60565224339087,ve_187.png,vehicle,1,1,2,87.0814538499535,88.6994631083044,90.014677821767,90.0338709979769,91.3837385685631,91.3840455702853,maybeOld,1.31521471346264,maybeUnshocked,1.34986757058618,1
13,1.99799622918249,ve_194.png,vehicle,1,1,2,91.4016638910532,93.4033096859296,94.754895500176,,,94.7552354057209,maybeNew,1.35158581424639,,,0
14,1.62377596478499,cl_086.png,clothing,1,1,2,94.7710935229077,96.4057720389753,97.8210095436179,97.840274866742,100.800151236837,100.800737468247,defOld,1.41523750464262,defShocked,2.95987637009466,1
15,1.77691614232131,ve_059.png,vehicle,1,1,2,100.80937364915,102.594174498008,104.134301631456,,,104.134955481732,maybeNew,1.5401271334481,,,0
16,1.81110996079756,sc_108.png,scene,0,1,2,104.1454212963,105.963592356935,107.2894313827,,,107.28992976996,maybeNew,1.32583902576516,,,1
17,1.90946357546353,ve_056.png,vehicle,0,1,2,107.298027716771,109.216268056556,110.286621577361,,,110.287664236111,maybeNew,1.0703535208047,,,1
18,1.90842812992483,sc_249.png,scene,0,1,2,110.300476485671,112.218727692773,114.348770559229,,,114.349096578757,maybeNew,2.13004286645628,,,1
19,1.53167956677062,to_255.png,tool,1,1,2,114.353811469226,115.888386594842,117.133868448102,117.139420725766,119.349963549206,119.35030707719,defOld,1.24548185326012,defUnshocked,2.21054282343971,1
20,1.7009474055283,ve_265.png,vehicle,0,1,2,119.35791025918,121.075980344323,122.351112466172,122.360365971088,124.625203724471,124.625817124176,maybeOld,1.27513212184886,maybeUnshocked,2.26483775338329,0
21,1.5671003013807,sc_053.png,scene,1,1,2,124.628895879606,126.213518927074,127.664341463194,127.681404645154,132.741556471563,132.741859548976,defOld,1.45082253612009,maybeUnshocked,5.06015182640886,1
22,1.55627810780843,cl_238.png,clothing,1,1,2,132.752213973539,134.320161122151,135.240681199692,135.254262311972,137.244726558668,137.24503114543,defOld,0.920520077540459,defShocked,1.99046424669609,1
23,1.93703975216165,to_147.png,tool,0,1,2,137.255889692782,139.207504470523,140.532907897974,,,140.533235728722,defNew,1.32540342745142,,,1
24,1.76144010404382,to_192.png,tool,1,1,2,140.541940132229,142.310056931744,143.525040261902,,,143.525349980454,defNew,1.2149833301587,,,0
25,1.88364702259579,to_152.png,tool,0,1,2,143.527715417232,145.429179335474,146.574171102897,,,146.574480821449,maybeNew,1.14499176742333,,,1
26,1.66554656542519,cl_050.png,clothing,0,1,2,146.580221767821,148.264928886065,149.940346275001,,,149.940653276723,defNew,1.67541738893578,,,1
27,1.63617717197295,to_086.png,tool,1,1,2,149.949633287479,151.600991626712,153.031452130221,153.035502303097,154.720535758758,154.720824950154,maybeOld,1.43046050350904,maybeUnshocked,1.68503345566114,1
28,1.52997560395325,to_239.png,tool,1,1,2,154.736899508083,156.271480972967,158.701702697359,158.706777718658,160.376785900259,160.377095316941,maybeOld,2.43022172439169,maybeShocked,1.67000818160091,1
29,1.9560314248371,sc_031.png,scene,1,1,2,160.391529513652,162.35981415285,164.094949565081,164.111247506761,165.741018237472,165.741305315779,defOld,1.7351354122311,maybeUnshocked,1.62977073071147,1
30,1.84204261033791,to_270.png,tool,1,1,2,165.745910929332,167.597437410117,168.918157627423,168.931857374587,169.902199575269,169.902544612603,defOld,1.32072021730619,defUnshocked,0.970342200682353,1
31,1.87710319366341,to_051.png,tool,1,1,2,169.916012825528,171.800876614267,173.031342249565,173.035225488368,173.790373971567,173.790717801421,defOld,1.23046563529806,defUnshocked,0.755148483199264,1
32,1.93278660180046,to_022.png,tool,1,1,2,173.802499467029,175.754120282168,177.254527369792,,,177.254840107043,maybeNew,1.50040708762435,,,0
33,1.88179056534778,ve_228.png,vehicle,1,1,2,177.272021018278,179.156904126693,180.913686329971,,,180.913999067222,defNew,1.75678220327836,,,0
34,1.87940598630092,sc_228.png,scene,1,1,2,180.925024246777,182.809894072915,183.909857713607,183.927484184863,184.863864206829,184.864150681396,defOld,1.09996364069229,maybeUnshocked,0.936380021966215,1
35,1.84594814042247,sc_236.png,scene,0,1,2,184.878263084759,186.729787754324,187.990010520167,,,187.990319634979,maybeNew,1.26022276584308,,,1
36,1.90117171680536,sc_046.png,scene,1,1,2,187.997484199957,189.915715181774,191.176142011692,,,191.176452635853,maybeNew,1.26042682991806,,,0
37,1.91766520907292,sc_238.png,scene,1,1,2,191.183427928382,193.118336922144,194.413322425766,,,194.413648445294,maybeNew,1.29498550362223,,,0
38,1.59177224502884,sc_242.png,scene,1,1,2,194.419405994513,196.020719128723,198.166447760653,198.17248544517,199.372495422897,199.372782803074,maybeOld,2.14572863193052,maybeUnshocked,1.20000997772695,1
39,1.53982037549807,cl_092.png,clothing,1,1,2,199.390155099846,200.941435405701,202.031624497953,202.042324563589,203.142718670806,203.143029898708,defOld,1.0901890922521,defShocked,1.1003941072172,1
40,1.86386857069279,ve_008.png,vehicle,0,1,2,203.159893544642,205.028094716803,206.213809643839,,,206.214134455887,maybeNew,1.18571492703563,,,1
41,1.82435021024503,sc_125.png,scene,0,1,2,206.229077303436,208.063942375123,209.023928927743,,,209.024239551904,maybeNew,0.959986552620421,,,1
42,1.67047193808637,sc_050.png,scene,1,1,2,209.031379061678,210.716073501384,211.836050213045,211.850356115035,212.495092047689,212.495394219493,maybeOld,1.11997671166046,maybeUnshocked,0.644735932654839,1
43,1.53768126203578,sc_237.png,scene,1,1,2,212.500896084878,214.052175786993,215.972232494185,,,215.972545533306,defNew,1.92005670719277,,,0
44,1.58655216885605,cl_230.png,clothing,1,1,2,215.987081460185,217.588375576589,218.573350318548,218.589225038581,219.239380744019,219.239727592572,defOld,0.984974741959149,defUnshocked,0.650155705437555,1
45,1.803243277511,to_061.png,tool,0,1,2,219.256438492321,221.074571215474,224.004632194127,224.010329067489,225.455653042774,225.456358512808,maybeOld,2.93006097865236,defUnshocked,1.44532397528496,0
46,1.75289768204149,to_113.png,tool,1,1,2,225.461519265168,227.229628216064,228.924809935143,228.931019383652,230.140856435188,230.141161625691,maybeOld,1.69518171907885,defUnshocked,1.20983705153571,1
47,1.83389920167945,cl_240.png,clothing,0,1,2,230.148696283206,232.000192878868,234.23104732264,,,234.231355531842,maybeNew,2.23085444377216,,,1
48,1.8483036050892,ve_189.png,vehicle,1,1,2,234.235369178456,236.086885999403,237.197162724497,237.204464640294,238.854244517665,238.854555745566,defOld,1.11027672509363,maybeShocked,1.64977987737029,1
49,1.51874162196566,sc_077.png,scene,0,1,2,238.872498878382,240.407092418063,241.582359022968,,,241.582669345259,maybeNew,1.17526660490421,,,1
50,1.82863658543599,ve_166.png,vehicle,1,1,2,241.591409671289,243.426249989641,244.436487622578,,,244.436800057959,maybeNew,1.01023763293733,,,0
51,1.91493860188417,cl_264.png,clothing,0,1,2,244.443739729836,246.361983390191,247.532633498205,,,247.532942311146,defNew,1.17065010801434,,,1
52,1.69849063504704,to_203.png,tool,1,1,2,247.54628192748,249.247648643603,250.262745476856,250.28183148924,251.211791945205,251.212385723363,defOld,1.01509683325366,defShocked,0.929960455964647,1
53,1.93272952762677,to_205.png,tool,1,1,2,251.215944150118,253.167561342818,254.728997474858,254.735511510129,256.662035780643,256.66232165147,maybeOld,1.56143613203994,defUnshocked,1.92652427051416,1
54,1.89663795808475,sc_042.png,scene,1,1,2,256.67042865438,258.571998227098,260.387165999786,,,260.387474208988,maybeNew,1.8151677726878,,,0
55,1.8377120223708,sc_174.png,scene,1,1,2,260.39013728952,262.241659242256,263.662334028137,,,263.6626416336,maybeNew,1.42067478588115,,,0
56,1.67232907755093,sc_117.png,scene,1,1,2,263.67617354108,265.360874923795,266.631469336807,,,266.631780564708,maybeNew,1.27059441301162,,,0
57,1.64055667816705,sc_037.png,scene,1,1,2,266.64526266365,268.296627342151,269.686602559555,269.697736412286,271.237670047107,271.237956219804,defOld,1.3899752174043,maybeUnshocked,1.53993363482095,1
58,1.91381461018242,sc_150.png,scene,1,1,2,271.249039056516,273.167273660772,274.427811578825,,,274.428124014206,maybeNew,1.26053791805316,,,0
59,1.71708748195786,ve_145.png,vehicle,1,1,2,274.434965880225,276.169736315687,277.099981434999,277.103835996158,278.428987664085,278.429603176879,defOld,0.930245119311621,maybeShocked,1.325151667927,1
60,1.50078159036776,to_191.png,tool,1,1,2,278.438253545669,279.956137678932,281.48612832189,281.490755670078,283.381208596652,283.381496580568,maybeOld,1.52999064295773,maybeUnshocked,1.89045292657374,1
61,1.50923693996439,sc_193.png,scene,1,1,2,283.392288414665,284.910206055491,286.460344403407,286.478194862154,287.278380528182,287.278669417708,defOld,1.55013834791635,maybeUnshocked,0.800185666028028,1
62,1.55185523320916,cl_031.png,clothing,1,1,2,287.29550076356,288.863496513231,291.668581528277,291.682445794554,292.902627324964,292.90292074254,defOld,2.80508501504573,defShocked,1.22018153041017,1
63,1.9347669591844,cl_100.png,clothing,1,1,2,292.916780178898,294.868393145419,295.948764521831,295.952629950307,296.482754925385,296.483038381253,defOld,1.08037137641168,defShocked,0.530124975078252,1
64,1.50753899442873,cl_206.png,clothing,1,1,2,296.486386102794,298.004287140773,299.254901386639,299.271993246244,299.806933952368,299.807220728805,defOld,1.25061424586602,defShocked,0.534940706123962,1
65,1.51253780181816,to_169.png,tool,1,1,2,299.82245095653,301.340363163698,304.371135498847,304.376185163073,305.271171270435,305.271458348742,maybeOld,3.03077233514978,maybeUnshocked,0.894986107362001,1
66,1.87479012111366,ve_007.png,vehicle,1,1,2,305.276916442986,307.161797438312,308.102306135356,,,308.102618268867,maybeNew,0.940508697043697,,,0
67,1.53152565815008,cl_055.png,clothing,0,1,2,308.11256577276,309.64716112366,311.162397873628,,,311.16270517722,defNew,1.5152367499677,,,1
68,1.98376821107201,sc_079.png,scene,1,1,2,311.165077557007,313.16678523522,314.452579704983,,,314.452890027274,maybeNew,1.285794469763,,,0
69,1.83839996969608,ve_116.png,vehicle,1,1,2,314.467768274657,316.319295359183,317.314698499857,,,317.31500610532,defNew,0.995403140674625,,,0
70,1.77629667883174,ve_126.png,vehicle,0,1,2,317.32012278467,319.10491246434,320.244838854283,,,320.245147365355,defNew,1.1399263899425,,,1
71,1.53583585734174,to_247.png,tool,0,1,2,320.255864637578,321.807127133106,322.823972397013,,,322.824281209955,defNew,1.01684526390727,,,1
72,1.7609099145879,ve_236.png,vehicle,0,1,2,322.841300922645,324.60941711842,325.815089572356,,,325.815397781558,maybeNew,1.20567245393568,,,1
73,1.67672621166126,to_017.png,tool,1,1,2,325.827095527324,327.511804154918,328.677210782191,328.696114163264,329.916269129121,329.916557113037,defOld,1.16540662727266,defUnshocked,1.22015496585618,1
74,1.78145270634617,cl_043.png,clothing,1,1,2,329.930436774681,331.715243057198,333.925436013385,333.933733194352,335.72351370565,335.723809236314,defOld,2.2101929561868,maybeShocked,1.78978051129752,1
75,1.86471204950694,ve_201.png,vehicle,1,1,2,335.735213866375,337.603409604877,339.028659229598,339.037916055083,341.263821341299,341.264113249524,defOld,1.42524962472044,maybeShocked,2.22590528621549,1
76,1.99823721166165,sc_151.png,scene,0,1,2,341.273080581743,343.274718829872,345.139931203842,,,345.140240620524,maybeNew,1.86521237397073,,,1
77,1.50883543885272,cl_241.png,clothing,0,1,2,345.142917587073,346.66083130359,347.651046809461,,,347.651355924273,maybeNew,0.99021550587122,,,1
78,1.76888031829627,sc_142.png,scene,1,1,2,347.66164635241,349.446440861999,350.72215468721,350.730830111204,351.691218150835,351.691505832882,maybeOld,1.27571382521046,maybeUnshocked,0.960388039631653,1
79,1.87786162577584,to_057.png,tool,0,1,2,351.698290343614,353.583171037069,355.138372649377,355.151117581941,356.221420690467,356.221707466904,maybeOld,1.55520161230743,defUnshocked,1.07030310852588,0
80,1.65518988514053,cl_140.png,clothing,0,1,2,356.235331142844,357.903381380039,359.519589094647,359.538040878301,361.059633499714,361.05992148363,maybeOld,1.61620771460821,maybeShocked,1.52159262141367,0
81,1.50322512072227,cl_001.png,clothing,0,1,2,361.072641662861,362.590555379378,363.785739060611,,,363.786048477293,maybeNew,1.19518368123363,,,1
82,1.65320012274508,to_002.png,tool,0,1,2,363.791534041701,365.459567072309,366.834890126891,,,366.835202260402,maybeNew,1.37532305458171,,,1
83,1.63629076018425,ve_037.png,vehicle,1,1,2,366.844012922126,368.495386354855,369.625998849876,,,369.626310681517,maybeNew,1.13061249502061,,,0
84,1.865037887143,cl_081.png,clothing,1,1,2,369.629653573139,371.497841161153,373.773197270492,373.783049383486,375.563277220744,375.563564902791,defOld,2.27535610933955,defShocked,1.78022783725783,1
85,1.74492740780909,ve_102.png,vehicle,0,1,2,375.567848421125,377.319279661946,378.484403135221,,,378.484711948163,maybeNew,1.16512347327534,,,1
86,1.77257173325736,cl_229.png,clothing,1,1,2,378.486903205989,380.271686848261,381.20253359435,381.205789245562,382.105526181934,382.105807524712,defOld,0.930846746088719,defShocked,0.899736936372392,1
87,1.62658526754247,ve_044.png,vehicle,1,1,2,382.123213630917,383.757877355358,384.948692978656,,,384.949004206557,maybeNew,1.19081562329893,,,0
88,1.59649236918941,sc_194.png,scene,1,1,2,384.958859338251,386.560180924819,387.675826708546,387.694442105704,388.524856121243,388.525144105159,maybeOld,1.11564578372736,maybeUnshocked,0.830414015539191,1
89,1.75008553716892,to_176.png,tool,1,1,2,388.528471601415,390.296580552311,391.516975202894,391.530956292836,392.887048119577,392.887333990404,maybeOld,1.22039465058333,maybeUnshocked,1.35609182674125,1
90,1.98306890155786,cl_155.png,clothing,0,1,2,392.898709037211,394.900352718998,396.861276275891,,,396.861585088833,defNew,1.96092355689325,,,1
91,1.76358804477075,sc_094.png,scene,0,1,2,396.868627396487,398.636738762343,399.577313870773,,,399.577620570625,maybeNew,0.94057510842913,,,1
92,1.67823185772255,sc_096.png,scene,1,1,2,399.5875140398,401.272246816988,402.322465613241,402.339775121068,402.939494398049,402.939781476355,maybeOld,1.05021879625338,maybeUnshocked,0.599719276981432,1
93,1.65036971979709,to_014.png,tool,0,1,2,402.956947897833,404.624978815352,405.620608056607,,,405.620918982638,maybeNew,0.995629241255301,,,1
94,1.98606502124829,cl_032.png,clothing,1,1,2,405.625795373521,407.627452337585,408.737733288858,408.745033393436,410.149792992693,410.15007976913,maybeOld,1.11028095127267,maybeShocked,1.40475959925789,1
95,1.94291291454605,sc_197.png,scene,1,1,2,410.162863341046,412.114455780412,413.471004638232,413.482244749179,414.079029850408,414.079313910016,maybeOld,1.35654885782014,maybeUnshocked,0.596785101229216,1
96,1.78441338928896,cl_257.png,clothing,1,1,2,414.082739212129,415.884198753257,417.044107725305,417.051840409497,418.052148936588,418.052435713025,maybeOld,1.15990897204756,maybeShocked,1.00030852709097,1
97,1.59207424341823,to_126.png,tool,0,1,2,418.069323508554,419.670648717561,420.661268729143,,,420.661579655174,maybeNew,0.990620011581996,,,1
98,1.52896518541934,sc_172.png,scene,1,1,2,420.671474029959,422.206058211672,423.841406895011,,,423.841717821043,defNew,1.63534868333909,,,0
99,1.76121352963087,to_189.png,tool,1,1,2,423.857417154645,425.625540293428,427.075554723736,427.093395824515,427.853581913161,427.853870802687,maybeOld,1.45001443030833,maybeUnshocked,0.760186088646151,1
100,1.78159893301481,ve_083.png,vehicle,1,1,2,427.860666180736,429.645484538051,431.580750961833,431.597078788636,432.601791296185,432.602078072621,maybeOld,1.9352664237822,maybeShocked,1.00471250754845,1
101,1.96752370459751,cl_260.png,clothing,1,1,2,432.614584226068,434.59955080152,435.779938026103,435.78384782946,436.698964435194,436.699251211631,maybeOld,1.18038722458277,maybeShocked,0.915116605734511,1
102,1.75635138925255,sc_188.png,scene,1,1,2,436.701229953024,438.469379656361,439.580105262046,,,439.580413773118,maybeNew,1.11072560568437,,,0
103,1.60026612761103,cl_149.png,clothing,0,1,2,439.58696825896,441.204960310725,442.290225602495,,,442.290533811697,maybeNew,1.08526529177016,,,1
104,1.55549933705828,ve_144.png,vehicle,1,1,2,442.3058636565,443.873806880803,445.389358481111,445.408411589672,446.094395633753,446.09468391954,defOld,1.5155516003083,maybeShocked,0.685984044081124,1
105,1.81701947106655,sc_179.png,scene,1,1,2,446.108972614943,447.943808707116,448.9645176043,,,448.964836378949,maybeNew,1.02070889718334,,,0
106,1.9001912666672,sc_111.png,scene,0,1,2,448.977995477063,450.896239741157,453.451709413965,453.465002240459,454.499763484907,454.500050865084,maybeOld,2.55546967280816,maybeUnshocked,1.03476124444842,0
107,1.56938253889348,cl_226.png,clothing,1,1,2,454.515845891455,456.100497918436,457.560867393066,457.568369448629,458.568942715652,458.569246698675,maybeOld,1.46036947463062,maybeShocked,1.0005732670229,1
108,1.75080013642522,sc_152.png,scene,1,1,2,458.585861905655,460.354004062244,463.034129716529,463.039505098412,463.889179019436,463.889466701482,maybeOld,2.68012565428535,maybeUnshocked,0.849673921023623,1
109,1.77187825586248,cl_208.png,clothing,1,1,2,463.906886693704,465.691691466872,469.512447153895,,,469.512754759357,maybeNew,3.82075568702339,,,0
110,1.76505618087024,to_109.png,tool,1,1,2,469.528165203433,471.296276569288,472.611573391373,472.630695930018,473.660597974151,473.660885052457,defOld,1.31529682208429,defUnshocked,1.02990204413254,1
111,1.62469807773533,sc_022.png,scene,1,1,2,473.664889642974,475.299557593594,476.714748912136,476.717333204616,477.882792055387,477.883078228084,defOld,1.41519131854284,maybeUnshocked,1.16545885077085,1
112,1.70355684044233,sc_221.png,scene,0,1,2,477.901697247681,479.619766427213,481.434949595268,,,481.435260521299,defNew,1.81518316805477,,,1
113,1.60765524667594,to_142.png,tool,1,1,2,481.437932657929,483.055923804084,484.16107628706,484.173489766438,484.964123965907,484.96442734519,defOld,1.10515248297588,defUnshocked,0.790634199468968,1
114,1.96496259586226,cl_173.png,clothing,0,1,2,484.974157804601,486.942426746562,489.043296600794,,,489.043619601622,maybeNew,2.10086985423186,,,1
115,1.73984779104814,sc_095.png,scene,1,1,2,489.06083341668,490.812265563111,492.072388410006,,,492.072694807988,maybeNew,1.26012284689523,,,0
116,1.87651149096147,to_115.png,tool,1,1,2,492.07997710224,493.964856286346,494.960553750206,494.965634808904,495.835591974486,495.835878750923,maybeOld,0.995697463860324,maybeUnshocked,0.869957165582491,1
117,1.82953221048047,to_204.png,tool,1,1,2,495.849720980695,497.684570958885,498.904717170513,498.918901117049,499.629748678187,499.630035152754,maybeOld,1.22014621162771,maybeUnshocked,0.710847561137598,1
118,1.83268549100161,sc_005.png,scene,0,1,2,499.63616671882,501.487695916434,502.653931176674,,,502.654242706445,maybeNew,1.16623526023977,,,1
119,1.59800385522538,sc_065.png,scene,0,1,2,502.671962455511,504.273296418746,506.644068180343,,,506.644381219464,maybeNew,2.3707717615971,,,1
120,1.5907620992149,sc_084.png,scene,1,1,2,506.658580863237,508.259903657285,509.570199098315,,,509.570512137436,maybeNew,1.31029544102967,,,0
121,1.57487927819185,sc_139.png,scene,0,1,2,509.577652552818,511.162282241424,512.352313002896,512.363263016838,513.233346967792,513.233631631139,maybeOld,1.19003076147192,maybeUnshocked,0.870083950954267,0
122,1.89618718266538,to_243.png,tool,1,1,2,513.247327453994,515.148875895816,516.304484126925,516.31649913799,517.121528005229,517.121815385405,maybeOld,1.15560823110809,maybeUnshocked,0.805028867238434,1
123,1.54248850221937,sc_206.png,scene,0,1,2,517.133827679642,518.685113117285,520.050652567328,520.069579796127,520.81968765518,520.819977148446,maybeOld,1.36553945004334,maybeUnshocked,0.750107859052605,0
124,1.83960740218885,to_158.png,tool,1,1,2,520.836850454219,522.688385991102,525.15388333029,525.157065325237,526.351894309299,526.352194066143,maybeOld,2.46549733918755,maybeUnshocked,1.19482898406159,1
125,1.80593558497791,ve_178.png,vehicle,1,1,2,526.358052741789,528.176207199578,529.242060141547,,,529.242371671318,maybeNew,1.06585294196884,,,0
126,1.65124536900233,to_091.png,tool,1,1,2,529.260441589506,530.928468884586,531.84417141986,,,531.844479629062,maybeNew,0.915702535274704,,,0
127,1.56961873377693,sc_245.png,scene,1,1,2,531.862568866926,533.44720821537,534.537296483064,534.548109749926,535.963352688227,535.963640068404,maybeOld,1.09008826769423,maybeShocked,1.41524293830162,1
128,1.79776605637119,sc_102.png,scene,0,1,2,535.965930037699,537.767412520941,539.032492072141,,,539.032802998172,maybeNew,1.26507955120042,,,1
129,1.62591776202488,ve_176.png,vehicle,1,1,2,539.035114098362,540.669779634023,541.570598774106,,,541.570909700137,maybeNew,0.900819140083513,,,0
130,1.74307108782802,to_155.png,tool,1,1,2,541.587199793199,543.338662730363,544.27372599568,544.289419895623,544.969754745773,544.970043333429,defOld,0.93506326531724,defUnshocked,0.680334850149393,1
131,1.78822875879136,sc_049.png,scene,0,1,2,544.973311059438,546.774782373493,548.159891749442,,,548.160204184823,maybeNew,1.38510937594901,,,1
132,1.81381527563184,ve_142.png,vehicle,1,1,2,548.175949100785,549.994100841744,551.024023111162,,,551.024336754023,maybeNew,1.02992226941797,,,0
133,1.88464159624902,ve_249.png,vehicle,1,1,2,551.028267084535,552.929832129204,554.265166171852,554.280937954238,555.46721224626,555.467499022696,defOld,1.33533404264745,maybeShocked,1.18627429202206,1
134,1.80935156596692,to_060.png,tool,0,1,2,555.48192235209,557.300079828578,558.615346463669,,,558.615651956042,maybeNew,1.31526663509112,,,1
135,1.97067597710981,cl_267.png,clothing,1,1,2,558.617827516632,560.602786243465,561.808489488134,,,561.808801621645,maybeNew,1.20570324466917,,,0
136,1.98657194975833,sc_101.png,scene,1,1,2,561.82045861497,563.822093542529,565.267648448313,565.273273174761,566.138707725003,566.139008689326,defOld,1.44555490578432,maybeUnshocked,0.865434550241389,1
137,1.79236061597707,to_046.png,tool,0,1,2,566.157343951186,567.958823113859,569.218830042699,,,569.219137346292,maybeNew,1.26000692884054,,,1
138,1.91778026227543,ve_180.png,vehicle,0,1,2,569.226528917459,571.161431270082,572.591974184083,572.595948889476,573.813085155999,573.813373743655,maybeOld,1.43054291400085,maybeUnshocked,1.21713626652308,0
139,1.51192313496679,sc_234.png,scene,1,1,2,573.830284783169,575.348169218303,577.273181120451,577.283115040196,578.37823095163,578.378516218717,maybeOld,1.92501190214762,maybeUnshocked,1.09511591143337,1
140,1.61554110956407,ve_149.png,vehicle,1,1,2,578.384030762639,580.01869690204,582.71441564773,,,582.714724158802,maybeNew,2.6957187456901,,,0
141,1.70479470745582,to_003.png,tool,1,1,2,582.720906740886,584.438988598956,586.104576197254,586.123690585411,586.618585829923,586.61887230449,maybeOld,1.66558759829786,maybeUnshocked,0.494895244512009,1
142,1.96073059449261,cl_073.png,clothing,0,1,2,586.624110033684,588.592385616783,589.617718859475,,,589.618028578027,maybeNew,1.02533324269189,,,1
143,1.56124283063701,to_253.png,tool,1,1,2,589.62657208486,591.194524667131,592.519855042058,592.528935575502,593.018875021319,593.019160892147,defOld,1.32533037492749,defUnshocked,0.489939445817072,1
144,1.70083721200491,sc_024.png,scene,1,1,2,593.029349891986,594.7474142416,596.283013627918,596.298698773633,597.224058429945,597.224346111991,maybeOld,1.53559938631861,maybeUnshocked,0.92535965631123,1
145,1.51917358931065,sc_083.png,scene,1,1,2,597.232790907356,598.767382635818,603.383322289925,,,603.383632310347,maybeNew,4.61593965410748,,,0
146,1.92954485479403,ve_183.png,vehicle,0,1,2,603.387834927539,605.32274754374,606.503470749558,,,606.50377926063,defNew,1.18072320581859,,,1
147,1.9144564795647,sc_257.png,scene,0,1,2,606.507062382005,608.425300608701,609.330593763066,,,609.330903481617,maybeNew,0.905293154364699,,,1
148,1.62398637772911,sc_076.png,scene,1,1,2,609.34270597625,610.977392340936,612.007713078666,,,612.008020684128,maybeNew,1.03032073773011,,,0
149,1.58660220391272,to_264.png,tool,0,1,2,612.011578205272,613.612851190781,614.94279353455,,,614.943115629768,maybeNew,1.32994234376883,,,1
150,1.95732551395219,sc_099.png,scene,0,1,2,614.947301040375,616.915583566483,618.065966127175,,,618.066271921417,maybeNew,1.15038256069238,,,1
151,1.75746033332868,sc_015.png,scene,1,1,2,618.083195337599,619.851319381992,620.92211001046,,,620.922424558931,maybeNew,1.07079062846788,,,0
152,1.81721936895792,sc_251.png,scene,1,1,2,620.935546527042,622.770368431328,623.905239405497,623.921308831638,624.492313334954,624.49259980952,maybeOld,1.13487097416919,maybeUnshocked,0.57100450331609,1
153,1.69911993349883,ve_159.png,vehicle,1,1,2,624.505133433132,626.223215593071,627.124390939676,627.140626394279,627.950423900854,627.950706752981,defOld,0.901175346604759,maybeShocked,0.809797506574796,1
154,1.5792362633596,to_042.png,tool,0,1,2,627.957967010728,629.542581002098,630.487520244152,,,630.487831170184,maybeNew,0.944939242054716,,,1
155,1.78018150400602,to_087.png,tool,1,1,2,630.493390088986,632.27816678825,633.183653139372,,,633.183964367273,maybeNew,0.905486351121908,,,0
156,1.9916177585123,sc_087.png,scene,1,1,2,633.195593588564,635.197231836692,636.032772509309,,,636.0330828316,maybeNew,0.835540672616844,,,0
157,1.94369354182316,sc_207.png,scene,1,1,2,636.047912779795,637.999528765015,639.034899182989,639.050387509508,640.070942754895,640.071230135072,defOld,1.03537041797426,maybeShocked,1.02055524538764,1
158,1.80393027737912,sc_018.png,scene,1,1,2,640.084561902787,641.902723605454,643.058087925656,643.070338697139,644.016121363788,644.016406932745,maybeOld,1.15536432020144,maybeShocked,0.945782666648938,1
159,1.83608154108768,to_117.png,tool,1,1,2,644.021130577442,645.872640455381,646.993247471462,647.006910390494,647.862258862524,647.862540205302,defOld,1.12060701608107,defUnshocked,0.855348472030073,1
160,1.60143915801594,sc_163.png,scene,0,1,2,647.874293797006,649.492267434704,651.282440075045,651.293756559085,651.738463210356,651.73876417468,maybeOld,1.79017264034064,maybeUnshocked,0.44470665127119,0
161,1.78953378903292,ve_270.png,vehicle,0,1,2,651.744125066806,653.545607851919,654.480586593654,,,654.480897821556,maybeNew,0.934978741735449,,,1
162,1.87301086714356,ve_113.png,vehicle,1,1,2,654.496380714416,656.381250238683,657.506712832642,657.515513834528,658.055747226193,658.056034002629,maybeOld,1.12546259395867,maybeUnshocked,0.54023339166497,1
163,1.98349852219385,sc_052.png,scene,1,1,2,658.065953130749,660.067606170503,661.323929682418,661.335305936705,661.720897700808,661.721184175374,maybeOld,1.25632351191462,maybeUnshocked,0.385591764103083,1
164,1.99578848011322,cl_117.png,clothing,1,1,2,661.73564554038,663.737284392248,664.793041898037,664.804823261775,665.375082146356,665.375382506939,defOld,1.05575750578964,defUnshocked,0.570258884580653,1
165,1.73873702832444,ve_066.png,vehicle,0,1,2,665.388628845463,667.140067331163,668.265191830796,,,668.265501247478,maybeNew,1.12512449963288,,,1
166,1.60697710095116,to_024.png,tool,1,1,2,668.27432005969,669.892327204951,672.202359113529,672.210885111906,672.841393612734,672.84168189852,defOld,2.31003190857746,defUnshocked,0.630508500828455,1
167,1.74111302592545,sc_103.png,scene,1,1,2,672.844741334275,674.596182838674,676.746627886443,,,676.746938208734,maybeNew,2.1504450477687,,,0
168,1.94752024033893,ve_052.png,vehicle,1,1,2,676.764608149261,678.716214474643,680.081715285335,680.100696246982,680.530733830715,680.531018494062,maybeOld,1.36550081069163,maybeUnshocked,0.430037583732428,1
169,1.88603147411502,to_092.png,tool,1,1,2,680.53437678105,682.43589473401,684.125842934055,684.137330276478,684.517897113671,684.518198379864,maybeOld,1.68994820004536,defUnshocked,0.380566837193328,1
170,1.80962607175119,cl_197.png,clothing,0,1,2,684.520984019589,686.339120968922,687.634049720997,,,687.634360647028,defNew,1.29492875207507,,,1
171,1.92934958081501,sc_132.png,scene,1,1,2,687.640186720722,689.575131033266,690.650181046493,,,690.650492576264,defNew,1.07505001322716,,,0
172,1.52772235368705,sc_030.png,scene,1,1,2,690.659324670753,692.193933002061,693.67431434018,693.678468658183,694.713371177761,694.713657652327,defOld,1.48038133811906,maybeUnshocked,1.03490251957783,1
173,1.96224943865682,cl_209.png,clothing,1,1,2,694.729290876414,696.697618079272,697.832500826369,697.848581723567,699.309584521317,699.309870694014,maybeOld,1.13488274709698,maybeShocked,1.46100279775055,1
174,1.53900231050788,ve_131.png,vehicle,1,1,2,699.316443292053,700.867707900671,702.022686431097,702.035343519512,702.5107041569,702.510993650166,defOld,1.15497853042643,maybeUnshocked,0.475360637388349,1
175,1.90703215171284,sc_090.png,scene,1,1,2,702.519069258602,704.437306579688,706.237852376547,706.255463150566,707.48092287676,707.481211766286,defOld,1.80054579685884,maybeUnshocked,1.225459726194,1
176,1.92097324554927,cl_171.png,clothing,0,1,2,707.489803572309,709.424725546478,710.370048767088,,,710.370360598729,defNew,0.945323220610135,,,1
177,1.60265169654721,cl_076.png,clothing,0,1,2,710.375505351983,711.993491366349,712.969161571354,,,712.969471893645,defNew,0.975670205004917,,,1
178,1.84167067819458,sc_073.png,scene,1,1,2,712.977634742492,714.82915126157,716.144308619745,716.163579074658,718.088386308991,718.088674292908,defOld,1.31515735817538,maybeShocked,1.924807234333,1
179,1.6453136443749,to_029.png,tool,0,1,2,718.098503161916,719.749846407652,720.680505692512,,,720.680816014804,maybeNew,0.930659284860212,,,1
180,1.84016608405021,sc_226.png,scene,1,1,2,720.683947597473,722.53546381468,724.085639292598,,,724.085951124239,maybeNew,1.5501754779184,,,0
181,1.71307723661375,ve_087.png,vehicle,1,1,2,724.103424547439,725.821493726972,726.806781206182,,,726.807092434083,maybeNew,0.985287479210456,,,0
182,1.51089127552647,sc_250.png,scene,1,1,2,726.82231843563,728.340224907268,730.015916695973,730.024976702262,731.224963436004,731.225245684392,maybeOld,1.67569178870508,maybeUnshocked,1.19998673374221,1
183,1.82821681142313,sc_056.png,scene,1,1,2,731.24259383157,733.07743958358,733.99814440552,,,733.998456539031,maybeNew,0.92070482193958,,,0
184,1.88812284934974,ve_025.png,vehicle,1,1,2,734.011535943482,735.913087705874,737.173186705045,737.180795622564,738.576298682187,738.576585760494,defOld,1.26009899917062,maybeShocked,1.39550305962257,1
185,1.51709080687473,cl_210.png,clothing,0,1,2,738.58194514327,740.116525702544,741.486425060035,,,741.486736287936,maybeNew,1.36989935749034,,,1
186,1.99936803601496,cl_004.png,clothing,1,1,2,741.501010191713,743.519338828453,744.449561609389,744.453443036972,745.368597678318,745.368885058495,defOld,0.930222780936674,defUnshocked,0.915154641345907,1
187,1.82796307368556,to_199.png,tool,1,1,2,745.37071950606,747.205684798565,749.800786069306,749.807814189074,750.408817017012,750.409103491579,defOld,2.59510127074145,defUnshocked,0.601002827937464,1
188,1.83409049822111,sc_004.png,scene,1,1,2,750.424975494783,752.276498051259,753.391956373757,753.410764967672,753.815965900772,753.816253582819,maybeOld,1.11545832249885,maybeUnshocked,0.405200933099877,1
189,1.72380197184965,ve_082.png,vehicle,1,1,2,753.827789224431,755.562524341111,756.853066923055,756.863598545269,757.744141383802,757.744427556499,defOld,1.29054258194401,maybeShocked,0.880542838533529,1
190,1.5393516349756,cl_158.png,clothing,1,1,2,757.747657246896,759.298929100393,762.654362246939,,,762.654671059881,maybeNew,3.35543314654615,,,0
191,1.79258507842802,cl_243.png,clothing,0,1,2,762.668348770539,764.469826725732,765.465483739021,,,765.465791646354,defNew,0.995657013289019,,,1
192,1.68695994296387,sc_064.png,scene,1,1,2,765.470633624064,767.172045620677,769.662676650512,769.674084903012,770.72473386392,770.725014904828,maybeOld,2.49063102983428,maybeUnshocked,1.05064896090835,1
193,1.9192754824693,sc_196.png,scene,1,1,2,770.741629809938,772.676557519635,774.246867420235,,,774.247179855616,maybeNew,1.57030990059957,,,0
194,1.63727537137374,cl_270.png,clothing,0,1,2,774.261184189542,775.912540717555,776.758033740002,,,776.758344062294,defNew,0.845493022447499,,,1
195,1.98724702425885,to_144.png,tool,0,1,2,776.763221962527,778.76488103968,780.15012716271,780.166018485589,780.976170991205,780.976457767642,maybeOld,1.38524612302945,defUnshocked,0.810152505616315,0
196,1.92753499177872,sc_141.png,scene,1,1,2,780.983344008541,782.918286509865,784.248307339816,,,784.248617662108,maybeNew,1.33002082995108,,,0
197,1.58578221855648,sc_219.png,scene,1,1,2,784.252705266855,785.854008439358,787.08450094108,,,787.084807037192,maybeNew,1.23049250172198,,,0
198,1.6141282400432,cl_160.png,clothing,1,1,2,787.088362445247,788.706355100752,790.136565052216,790.140858834128,790.575600758901,790.575884818508,defOld,1.43020995146435,defUnshocked,0.434741924772879,1
199,1.55642548118623,to_082.png,tool,1,1,2,790.591233982988,792.15917901851,793.509727305796,793.526969496627,794.021748219345,794.022034392042,defOld,1.35054828728562,defUnshocked,0.494778722718365,1
200,1.72542364256029,cl_212.png,clothing,0,1,2,794.027377473842,795.762138249466,797.492897755144,,,797.493205662476,defNew,1.73075950567772,,,1
201,1.80391194866861,sc_203.png,scene,1,1,2,797.496896308262,799.315048954831,803.805166202039,803.81874067318,804.824271248247,804.824557119074,maybeOld,4.49011724720776,maybeUnshocked,1.00553057506704,1
202,1.88407683332362,to_111.png,tool,1,1,2,804.836238865734,806.737790929996,808.343383086529,808.355776944362,809.181403604629,809.181690079196,maybeOld,1.60559215653348,maybeUnshocked,0.825626660267517,1
203,1.93426868108099,to_161.png,tool,0,1,2,809.189806138203,811.141404916837,812.326554441488,,,812.32686144321,maybeNew,1.18514952465057,,,1
204,1.91551915947776,sc_048.png,scene,1,1,2,812.342394144609,814.260582562765,816.670737785211,816.679267104157,817.669839420289,817.670126800466,maybeOld,2.41015522244561,maybeUnshocked,0.990572316132329,1
205,1.65376988109659,ve_262.png,vehicle,0,1,2,817.680088492245,819.348123937813,820.983939010199,,,820.9842502381,maybeNew,1.63581507238587,,,1
206,1.61822495812181,ve_012.png,vehicle,0,1,2,820.999479862086,822.634136341648,823.704106487638,,,823.70441560245,maybeNew,1.06997014598937,,,1
207,1.77023379462255,sc_217.png,scene,1,1,2,823.718366203528,825.503175806614,826.888192508494,,,826.888504038265,maybeNew,1.38501670187998,,,0
208,1.7442889678875,to_059.png,tool,0,1,2,826.904279141221,828.655755360661,829.956309157074,,,829.956622196194,maybeNew,1.30055379641226,,,1
209,1.84776746842518,to_079.png,tool,1,1,2,829.97348342717,831.825010511695,833.135466245659,833.14275306796,833.662490396763,833.662778380679,defOld,1.31045573396432,defUnshocked,0.51973732880333,1
210,1.9672857619726,ve_017.png,vehicle,0,1,2,833.676558123375,835.661481531426,837.006646572191,,,837.006955988873,defNew,1.3451650407651,,,1
211,1.84518793978394,ve_035.png,vehicle,1,1,2,837.012610600444,838.864110214806,840.389784419587,840.398700735788,841.278829106903,841.2791152796,maybeOld,1.52567420478181,maybeUnshocked,0.880128371115006,1
212,1.51334553855072,cl_211.png,clothing,0,1,2,841.282762456114,842.80068039881,843.620934076135,,,843.621245907776,maybeNew,0.820253677324217,,,1
213,1.72205155333543,sc_143.png,scene,1,1,2,843.634689669236,845.36945165234,846.405056019513,846.420307680004,846.895073331754,846.89535980632,maybeOld,1.03560436717271,maybeUnshocked,0.474765651749749,1
214,1.91180263300567,cl_202.png,clothing,1,1,2,846.904062398608,848.822238741967,849.74220307696,,,849.742514606731,maybeNew,0.919964334992983,,,0
215,1.92026897333863,cl_068.png,clothing,0,1,2,849.756359553333,851.69129028173,853.061346007845,,,853.061656330137,maybeNew,1.37005572611542,,,1
216,1.84269623120792,ve_171.png,vehicle,1,1,2,853.075752734393,854.927291289976,856.062483453755,,,856.062793474176,maybeNew,1.13519216377881,,,0
217,1.56416142506011,cl_222.png,clothing,0,1,2,856.078216596789,857.64616887719,863.116791665975,,,863.117102893876,defNew,5.47062278878502,,,1
218,1.57791389765491,cl_037.png,clothing,0,1,2,863.133996424934,864.718636075248,865.563880960611,,,865.564190377292,defNew,0.845244885362263,,,1
219,1.97012213346344,sc_247.png,scene,1,1,2,865.569330904367,867.554278160143,868.420021825196,,,868.420333958707,maybeNew,0.865743665052833,,,0
220,1.65464577935526,ve_160.png,vehicle,1,1,2,868.438344710388,870.106377740997,871.317152098675,871.324045584453,872.32125149237,872.321538570676,maybeOld,1.21077435767893,maybeShocked,0.99720590791685,1
221,1.57321904854662,cl_157.png,clothing,1,1,2,872.324862142623,873.909483077001,875.161358233578,875.177202464748,876.107382983894,876.107667043501,defOld,1.25187515657717,defShocked,0.930180519146234,1
222,1.78688875490348,cl_199.png,clothing,0,1,2,876.11129761717,877.912774666753,879.05349799332,,,879.053809221221,defNew,1.14072332656633,,,1
223,1.83170421971339,cl_101.png,clothing,1,1,2,879.063709331534,880.898551159236,881.828616665937,881.832669857512,882.847661941899,882.847949623945,defOld,0.930065506701339,defShocked,1.0149920843869,1
224,1.60317733518934,ve_086.png,vehicle,1,1,2,882.85014903226,884.468145612074,885.558843053294,,,885.559153677455,maybeNew,1.09069744121962,,,0
225,1.59588824247527,cl_178.png,clothing,1,1,2,885.569041411101,887.17035997897,888.135908786981,888.154501845763,888.659910314443,888.66019467592,defOld,0.96554880801159,defShocked,0.505408468679434,1
226,1.59299920714908,ve_211.png,vehicle,1,1,2,888.671587834923,890.272902780353,891.249078315626,,,891.249388939788,maybeNew,0.976175535273342,,,0
227,1.53316891702024,ve_222.png,vehicle,1,1,2,891.257044647147,892.808311972594,893.865187302747,893.875852351471,894.731201125371,894.731485486848,maybeOld,1.05687533015271,maybeShocked,0.855348773900005,1
228,1.69375838385537,ve_114.png,vehicle,0,1,2,894.743227003755,896.44462994427,897.190295485384,,,897.190600977757,maybeNew,0.745665541114249,,,1
229,1.88380131436398,sc_122.png,scene,0,1,2,897.195237080173,899.096794578094,900.387406590123,,,900.387712082495,maybeNew,1.2906120120283,,,1
230,1.70419166994731,ve_261.png,vehicle,1,1,2,900.397868480382,902.115936754304,903.471628301514,,,903.471937718195,defNew,1.35569154720952,,,0
231,1.99985551670637,ve_105.png,vehicle,1,1,2,903.483713950144,905.502041077535,908.747798538044,908.754717380896,911.239915959411,911.240202433977,defOld,3.24575746050914,maybeUnshocked,2.48519857851488,1
232,1.87370759119756,sc_256.png,scene,1,1,2,911.256766624938,913.141642790345,914.702063733799,914.709584807168,918.350226176047,918.350525932892,defOld,1.56042094345412,maybeShocked,3.64064136887964,1
233,1.86307633781154,to_214.png,tool,1,1,2,918.362578677699,920.230781962949,921.311357403436,921.315013636048,922.030387133096,922.030673909533,defOld,1.08057544048643,defUnshocked,0.715373497047494,1
234,1.61746002936664,ve_157.png,vehicle,1,1,2,922.048931590819,923.683608295668,924.883511411438,,,924.883825658039,maybeNew,1.19990311577067,,,0
235,1.50007816795702,to_222.png,tool,0,1,2,924.901275535384,926.419188044421,927.564601222271,,,927.56492452497,maybeNew,1.14541317785006,,,1
236,1.98422810356675,ve_001.png,vehicle,1,1,2,927.57013297278,929.571766390989,930.876777296966,930.88952585197,931.81982289291,931.820110574957,defOld,1.30501090597727,maybeShocked,0.930297040940331,1
237,1.9643355543484,cl_151.png,clothing,1,1,2,931.823617080083,933.791909869768,935.211971255945,935.226396396559,935.58198893043,935.582272688167,defOld,1.42006138617671,defShocked,0.355592533871004,1
238,1.79928966329393,sc_263.png,scene,1,1,2,935.59334978935,937.411527189254,938.612120983432,938.629204390678,939.084145942038,939.084432718475,maybeOld,1.20059379417808,maybeUnshocked,0.454941551359752,1
239,1.78142972087938,ve_227.png,vehicle,1,1,2,939.096230081319,940.881046325543,941.956272027072,,,941.956581443754,maybeNew,1.07522570152832,,,0
240,1.57408136052339,ve_019.png,vehicle,1,1,2,941.965269546284,943.549892593752,944.755394491176,944.767540211923,945.80344161911,945.803726282457,maybeOld,1.2055018974238,maybeShocked,1.03590140718688,1
241,1.98547684863212,to_069.png,tool,1,1,2,945.818414049912,947.82005320365,949.010566957015,949.021040318332,949.531601706773,949.53188637012,defOld,1.19051375336539,defUnshocked,0.510561388440692,1
242,1.58551119736685,sc_021.png,scene,1,1,2,949.538128118711,951.13944819593,952.154675436994,952.173624098559,952.558741323126,952.559028099563,maybeOld,1.01522724106462,maybeUnshocked,0.385117224567693,1
243,1.58588376030347,sc_161.png,scene,1,1,2,952.573937741419,954.175258724247,955.300858367156,955.309522018222,956.194897794387,956.195182457735,defOld,1.12559964290813,maybeUnshocked,0.885375776165347,1
244,1.88428523479733,ve_095.png,vehicle,1,1,2,956.210260844884,958.111828304512,959.262036384383,,,959.262347914154,maybeNew,1.15020807987094,,,0
245,1.79608821715038,sc_268.png,scene,0,1,2,959.279437358799,961.080916219602,962.011154697775,,,962.011464718197,maybeNew,0.930238478173123,,,1
246,1.83031445359002,sc_113.png,scene,0,1,2,962.015034616009,963.849851992246,964.76528556141,,,964.765595279962,maybeNew,0.915433569164179,,,1
247,1.85568349594822,to_066.png,tool,0,1,2,964.783956200765,966.652148014959,967.997417502721,968.003274065278,968.693462855659,968.693761405024,maybeOld,1.34526948776193,maybeUnshocked,0.690188790381853,0
248,1.86475293952553,ve_130.png,vehicle,1,1,2,968.703831468109,970.5720323384,971.402540537359,,,971.402847539081,maybeNew,0.830508198958796,,,0
249,1.85083058684413,sc_129.png,scene,0,1,2,971.406044023785,973.274241271637,974.829718491194,,,974.830023077957,maybeNew,1.55547721955645,,,1
250,1.90753644223513,cl_018.png,clothing,1,1,2,974.842198080087,976.760434193693,977.670842835947,,,977.67115013954,maybeNew,0.910408642254424,,,0
251,1.71374603027959,ve_177.png,vehicle,0,1,2,977.677843787421,979.3959325885,982.726070845855,,,982.726379356927,maybeNew,3.33013825735497,,,1
252,1.87032623462865,sc_097.png,scene,0,1,2,982.731991706707,984.616879041301,986.917253828843,,,986.917563245525,maybeNew,2.30037478754139,,,1
253,1.75622518338102,to_121.png,tool,0,1,2,986.935425779069,988.703535333705,989.434345251662,,,989.434651347774,maybeNew,0.730809917956776,,,1
254,1.68163691810372,sc_098.png,scene,1,1,2,989.437490418477,991.1222047816,992.972533458509,992.990400218232,994.970611754514,994.97089853095,defOld,1.85032867690916,maybeUnshocked,1.98021153628179,1
255,1.97787672668057,sc_148.png,scene,1,1,2,994.975355624496,996.960230129618,997.99574665264,,,997.996055767451,maybeNew,1.03551652302212,,,0
256,1.56374783813753,to_094.png,tool,1,1,2,998.011176416391,999.579125979963,1000.47485166866,1000.47986329727,1001.70990540906,1001.71019188362,defOld,0.895725688698803,defUnshocked,1.23004211178159,1
257,1.95021538594199,to_100.png,tool,1,1,2,1001.71421760503,1003.68248835822,1005.07805148995,1005.08363576583,1006.16410615558,1006.16439263015,maybeOld,1.39556313173944,maybeUnshocked,1.08047038974928,1
258,1.67612149316958,sc_164.png,scene,1,1,2,1006.16786049592,1007.8525742553,1009.77825811992,1009.78748687151,1010.2822969887,1010.28258195391,maybeOld,1.92568386461926,maybeUnshocked,0.494810117191264,1
259,1.70052765763903,to_105.png,tool,1,1,2,1010.28790088612,1012.00597549931,1012.97141050236,1012.99011615862,1013.45043612659,1013.45073588343,defOld,0.965435003046423,defUnshocked,0.460319967961368,1
260,1.95205228365025,sc_002.png,scene,1,1,2,1013.45717535683,1015.42544792123,1018.46063933033,1018.4779434045,1018.85768130686,1018.85796506459,maybeOld,3.03519140910385,maybeUnshocked,0.379737902356283,1
261,1.89490597239524,cl_201.png,clothing,1,1,2,1018.86159382704,1020.76314468382,1026.38900770825,1026.40108279143,1027.82605650703,1027.82634056664,defOld,5.62586302442514,defShocked,1.42497371560148,1
262,1.95986884842837,sc_233.png,scene,1,1,2,1027.83561912676,1029.80389259677,1030.97921082143,1030.98821256683,1032.77327213424,1032.77355830693,defOld,1.17531822466299,maybeUnshocked,1.78505956741037,1
263,1.53223367826964,ve_173.png,vehicle,1,1,2,1032.78967090047,1034.34094094275,1035.46639780118,1035.47512393932,1036.03542624789,1036.0357133262,maybeOld,1.12545685842997,maybeUnshocked,0.560302308570499,1
264,1.52227063790048,ve_153.png,vehicle,0,1,2,1036.04233482717,1037.57692776311,1038.61253635646,,,1038.61285482924,maybeNew,1.03560859335175,,,1
265,1.95012530478098,ve_150.png,vehicle,1,1,2,1038.62779405435,1040.59607175054,1042.14169170929,1042.14734450965,1042.82775211045,1042.82803858502,maybeOld,1.54561995875429,maybeShocked,0.680407600802937,1
266,1.97959631318939,sc_208.png,scene,0,1,2,1042.83123899403,1044.81619289094,1048.18696223758,1048.20229781791,1048.83698510423,1048.83726946571,maybeOld,3.3707693466381,maybeShocked,0.634687286315057,0
267,1.50536915925404,cl_039.png,clothing,1,1,2,1048.85284925881,1050.37074969305,1051.60714556319,,,1051.60745075369,maybeNew,1.23639587013759,,,0
268,1.89356528278879,sc_202.png,scene,0,1,2,1051.62176722113,1053.52331445547,1054.49824206044,1054.50747141577,1055.31726922421,1055.31755539691,maybeOld,0.974927604969253,maybeUnshocked,0.809797808444273,0
269,1.52058685014588,cl_194.png,clothing,1,1,2,1055.32480750416,1056.85940466629,1057.70938136285,1057.72677539426,1058.28240747309,1058.28269545701,defOld,0.849976696566955,defShocked,0.555632078832332,1
270,1.9658166642165,ve_002.png,vehicle,1,1,2,1058.29390266413,1060.27893323601,1061.76955792658,1061.78009256749,1063.28562661406,1063.28591127741,defOld,1.49062469056571,maybeShocked,1.50553404657148,1
271,1.59190825445382,sc_085.png,scene,1,1,2,1063.29799903913,1064.89931307895,1066.35476358302,1066.36718551475,1066.9777814673,1066.97808001666,maybeOld,1.45545050406781,maybeUnshocked,0.61059595254801,1
272,1.79672984502558,cl_166.png,clothing,1,1,2,1066.98436432892,1068.78583715232,1070.29193146949,1070.30374362396,1072.4690270883,1072.46931265726,maybeOld,1.50609431716794,defShocked,2.16528346434006,1
273,1.97020456208743,ve_030.png,vehicle,1,1,2,1072.47217557568,1074.45714758479,1076.03718071595,1076.04177606592,1076.56220860118,1076.56249598136,maybeOld,1.58003313115114,maybeShocked,0.520432535259715,1
274,1.79299027556275,sc_058.png,scene,1,1,2,1076.57553282215,1078.37701832409,1079.4823461935,1079.49459334254,1079.97941518738,1079.97970437877,maybeOld,1.10532786940712,maybeUnshocked,0.484821844837825,1
275,1.65529427928973,ve_055.png,vehicle,0,1,2,1079.99501852634,1081.66304129337,1082.6934785529,,,1082.69378525275,maybeNew,1.03043725952421,,,1
276,1.94678325811568,to_168.png,tool,1,1,2,1082.69721961096,1084.64882865317,1085.93962812643,1085.94988655635,1086.48467059198,1086.48495797216,defOld,1.29079947325727,defUnshocked,0.534784035628491,1
277,1.61240449504467,to_071.png,tool,1,1,2,1086.50033943672,1088.11833480905,1089.25877528349,1089.26927762432,1089.8197969321,1089.82008310479,maybeOld,1.14044047443895,defUnshocked,0.550519307771992,1
278,1.60545573199345,ve_118.png,vehicle,0,1,2,1089.83640942225,1091.45440117214,1092.75492870587,1092.77213255922,1093.78696767124,1093.78725293833,maybeOld,1.30052753372775,maybeShocked,1.0148351120215,0
279,1.88703230689181,to_166.png,tool,0,1,2,1093.78964222283,1095.69118674034,1097.36113303861,1097.3759168007,1098.22616638769,1098.22645527721,maybeOld,1.66994629826468,maybeUnshocked,0.850249586986592,0
280,1.85638966721194,ve_245.png,vehicle,0,1,2,1098.24328813242,1100.11149051206,1101.42730051303,,,1101.42760962784,maybeNew,1.31581000097094,,,1
281,1.57491701162349,sc_081.png,scene,0,1,2,1101.44591772141,1103.03053835391,1104.26043073821,1104.26489447289,1105.02047010205,1105.02075808596,maybeOld,1.22989238429454,maybeUnshocked,0.755575629154919,0
282,1.56034137883305,ve_199.png,vehicle,1,1,2,1105.0322001479,1106.60014578716,1107.81059804962,1107.81779461281,1108.39260931842,1108.39289428364,maybeOld,1.21045226245997,maybeShocked,0.57481470561379,1
283,1.54204765868332,to_078.png,tool,0,1,2,1108.40162615731,1109.95288955845,1110.94872195817,,,1110.94902895989,maybeNew,0.995832399720257,,,1
284,1.78104331671806,sc_262.png,scene,0,1,2,1110.95371517272,1112.73850756922,1114.40387268937,,,1114.40418150232,defNew,1.66536512015682,,,1
285,1.73116324808742,to_229.png,tool,0,1,2,1114.406544826,1116.14128628195,1117.33200560874,,,1117.33231472356,defNew,1.1907193267898,,,1
286,1.96107743293951,ve_069.png,vehicle,0,1,2,1117.34226826485,1119.31055380965,1120.53114346821,,,1120.53145228116,maybeNew,1.22058965855967,,,1
287,1.69077114400919,sc_006.png,scene,1,1,2,1120.54490479684,1122.24629445508,1123.28126942344,1123.29716346315,1124.09731441414,1124.09760420927,maybeOld,1.03497496836189,maybeUnshocked,0.800150950985881,1
288,1.95678274688954,ve_092.png,vehicle,1,1,2,1124.11448989171,1126.08278056831,1127.45847130047,1127.46725600138,1129.06752770034,1129.06781538239,defOld,1.37569073216036,maybeShocked,1.6002716989592,1
289,1.60073305937987,to_016.png,tool,0,1,2,1129.08523839331,1130.70323527499,1133.97875560157,,,1133.97908011175,maybeNew,3.27552032658332,,,1
290,1.85114286364252,to_122.png,tool,1,1,2,1133.98925311249,1135.8574527753,1137.01788337859,1137.02506786698,1137.78491223886,1137.78519871343,defOld,1.1604306032923,defUnshocked,0.759844371881627,1
291,1.56805117395043,to_238.png,tool,1,1,2,1137.79236871207,1139.37703885124,1140.73204998362,1140.74479340684,1141.14005617799,1141.14034114321,defOld,1.35501113237933,defUnshocked,0.395262771156013,1
292,1.96976496188222,cl_139.png,clothing,1,1,2,1141.14513180303,1143.13008207751,1143.97018581604,1143.98078294403,1144.26619796328,1144.26648232476,defOld,0.840103738528342,defShocked,0.285415019257016,1
293,1.62840294241135,to_089.png,tool,1,1,2,1144.2810327414,1145.91569676771,1147.43633970631,1147.45030479715,1148.17036874922,1148.17065673313,maybeOld,1.52064293860349,maybeUnshocked,0.720063952071087,1
294,1.70530773172315,ve_185.png,vehicle,0,1,2,1148.18422305379,1149.90229585576,1151.04249664547,1151.05324108599,1151.61851368301,1151.61880045945,maybeOld,1.1402007897118,maybeUnshocked,0.565272597022158,0
295,1.63338147638628,to_037.png,tool,0,1,2,1151.63705451829,1153.28841919679,1156.24872331658,1156.25750681001,1156.71274238269,1156.713029461,maybeOld,2.96030411979018,maybeUnshocked,0.455235572675065,0
296,1.98158632795447,sc_183.png,scene,1,1,2,1156.724564197,1158.70952081074,1160.3799069335,1160.39422038224,1161.32894917567,1161.32923534837,defOld,1.67038612275746,maybeUnshocked,0.934728793431077,1
297,1.69514673194378,sc_225.png,scene,1,1,2,1161.34501437563,1163.04639558151,1164.16208936256,1164.18065978109,1165.0811202997,1165.08140828361,maybeOld,1.11569378104696,maybeUnshocked,0.900460518602813,1
298,1.81785323308164,sc_070.png,scene,1,1,2,1165.09808990198,1166.93292025862,1171.85841998258,1171.8703009634,1172.83551439391,1172.83580932084,maybeOld,4.92549972396,maybeShocked,0.965213430515178,1
299,1.67382447731463,cl_013.png,clothing,0,1,2,1172.85443890588,1174.5391562877,1175.40956988063,,,1175.4098783917,maybeNew,0.870413592921523,,,1
300,1.76272154502301,ve_034.png,vehicle,1,1,2,1175.42320351827,1177.19132665706,1178.05169220738,1178.05869919625,1178.94373959492,1178.9440239564,maybeOld,0.860365550321603,maybeShocked,0.885040398669844,1
301,1.57045324013741,ve_191.png,vehicle,1,1,2,1178.95944134348,1180.54406710778,1181.67980716549,1181.6950023763,1182.23487201469,1182.23515879113,maybeOld,1.13574005770761,maybeShocked,0.539869638394975,1
302,1.93328441353244,sc_003.png,scene,0,1,2,1182.24547155764,1184.19704407359,1185.38702502653,1185.39804809299,1185.83303211745,1185.83331557332,maybeOld,1.18998095293318,maybeUnshocked,0.434984024459482,0
303,1.83910388008255,ve_057.png,vehicle,1,1,2,1185.84841177079,1187.69994489272,1188.92015661012,1188.93424546763,1190.06421467782,1190.06450175613,defOld,1.2202117174038,maybeShocked,1.12996921019294,1
304,1.92040072237954,sc_239.png,scene,0,1,2,1190.06854226917,1192.00344311244,1193.0333539108,1193.03763561792,1193.66737102984,1193.66765931563,maybeOld,1.02991079836011,maybeUnshocked,0.629735411929232,0
305,1.94474436624778,to_040.png,tool,1,1,2,1193.67145893646,1195.623085789,1196.57850716262,1196.59056473735,1197.34553873972,1197.34582430868,defOld,0.955421373619174,defUnshocked,0.754974002377821,1
306,1.87659358883179,sc_105.png,scene,1,1,2,1197.35785109267,1199.24270914588,1200.16266080234,1200.17680460018,1200.6566878529,1200.65697734617,maybeOld,0.919951656455851,maybeUnshocked,0.479883252728996,1
307,1.81823450202364,ve_196.png,vehicle,0,1,2,1200.66055599821,1202.49539209038,1203.51582085227,,,1203.5161287596,defNew,1.0204287618858,,,1
308,1.87121061776449,to_251.png,tool,1,1,2,1203.52957252106,1205.41444385655,1206.31493486402,1206.33187216621,1206.8270116235,1206.82729930555,defOld,0.900491007465916,defUnshocked,0.495139457288133,1
309,1.51799893162061,sc_246.png,scene,1,1,2,1206.83226806863,1208.36687519246,1211.41716372067,1211.43605140451,1213.66626618589,1213.66655266046,defOld,3.05028852820851,maybeShocked,2.23021478138298,1
310,1.80561149051429,cl_008.png,clothing,0,1,2,1213.67122891157,1215.48938548245,1216.539385423,,,1216.53969453781,defNew,1.04999994055197,,,1
311,1.94632626552553,to_124.png,tool,0,1,2,1216.55690986222,1218.5085122633,1219.64352089015,1219.65945145612,1220.3695597378,1220.36984530675,maybeOld,1.13500862685896,maybeUnshocked,0.710108281670728,0
312,1.56629154872715,cl_239.png,clothing,1,1,2,1220.37669622887,1221.96134191658,1223.06668608697,1223.07892478365,1223.62370192155,1223.6239865849,defOld,1.10534417038343,defShocked,0.544777137900837,1
313,1.79414245570651,ve_124.png,vehicle,1,1,2,1223.62937373971,1225.43084263881,1226.89588626748,1226.89868518949,1227.78387893808,1227.78416480891,maybeOld,1.46504362867836,maybeShocked,0.885193748595611,1
314,1.81278118637238,sc_190.png,scene,1,1,2,1227.79945873119,1229.61762194321,1232.83310728306,1232.83692803479,1233.48710064495,1233.48739768496,maybeOld,3.21548533985788,maybeUnshocked,0.650172610153732,1
315,1.74844105890553,ve_163.png,vehicle,1,1,2,1233.50413907357,1235.25556639008,1236.2562591976,,,1236.25656861428,maybeNew,1.00069280751632,,,0
316,1.66014467788149,sc_218.png,scene,0,1,2,1236.27307122378,1237.94109942446,1240.99146855194,1241.01028590009,1241.53548375412,1241.53576660624,maybeOld,3.05036912748028,maybeUnshocked,0.525197854026828,0
317,1.90337691327697,to_186.png,tool,0,1,2,1241.54405956103,1243.46228933537,1244.79263376989,,,1244.79294348844,maybeNew,1.3303444345197,,,1
318,1.72876527338208,cl_021.png,clothing,1,1,2,1244.79671382789,1246.53147188668,1252.02696030561,1252.03598710621,1252.7759953029,1252.7762814756,maybeOld,5.49548841893147,defShocked,0.740008196694362,1
319,1.67471986232048,sc_107.png,scene,1,1,2,1252.78659363837,1254.47130739776,1257.07217921414,1257.09011842265,1257.75520099255,1257.75548656151,defOld,2.60087181638664,maybeUnshocked,0.665082569898914,1
320,1.97861454759705,sc_063.png,scene,1,1,2,1257.77402317061,1259.75897797313,1260.70433138074,1260.70967627376,1261.40935766606,1261.409666479,defOld,0.945353407603761,maybeUnshocked,0.699681392304683,1
321,1.50673897313535,to_201.png,tool,1,1,2,1261.42700345699,1262.94492170156,1264.21548260701,,,1264.21580077792,maybeNew,1.2705609054492,,,0
322,1.91774900733194,sc_060.png,scene,0,1,2,1264.22931638442,1266.16422749127,1267.0246090407,,,1267.02491875925,maybeNew,0.860381549427984,,,1
323,1.94753674550059,ve_009.png,vehicle,1,1,2,1267.03160757722,1268.9831957904,1269.87872888609,1269.88391801422,1270.95378763752,1270.95407441396,defOld,0.895533095681458,maybeShocked,1.06986962330166,1
324,1.98928699046522,sc_270.png,scene,1,1,2,1270.96815512098,1272.96980091585,1274.01492505324,1274.0206711314,1275.15096907795,1275.15125736374,defOld,1.04512413738939,maybeShocked,1.13029794654994,1
325,1.76273449214919,sc_200.png,scene,0,1,2,1275.15492868985,1276.92304699871,1278.04810146452,,,1278.04841057933,maybeNew,1.12505446580872,,,1
326,1.8405141416824,cl_016.png,clothing,0,1,2,1278.05729067114,1279.90881986876,1280.74421504007,,,1280.74452385301,maybeNew,0.835395171308846,,,1
327,1.57955494640826,ve_074.png,vehicle,1,1,2,1280.75951862218,1282.34415676315,1283.34433910861,,,1283.34464852529,maybeNew,1.00018234545905,,,0
328,1.8809342776053,cl_219.png,clothing,1,1,2,1283.36163956034,1285.24650123599,1286.3514635409,1286.36411157322,1288.36955792658,1288.36983987309,defOld,1.10496230491799,defShocked,2.00544635335564,1
329,1.54335254374517,cl_251.png,clothing,1,1,2,1288.38243628565,1289.9337156859,1290.75863687613,1290.76771861705,1291.15267735991,1291.1529665513,defOld,0.824921190232999,defShocked,0.384958742852632,1
330,1.68423555416509,to_056.png,tool,0,1,2,1291.16804131601,1292.86944667149,1294.52982580595,,,1294.53013401516,maybeNew,1.66037913446826,,,1
331,1.60467995773538,ve_240.png,vehicle,1,1,2,1294.53747094787,1296.15546964077,1297.61096723655,1297.62333241674,1298.02297803745,1298.02326421015,maybeOld,1.45549759577671,maybeUnshocked,0.39964562071782,1
332,1.77499911580306,to_183.png,tool,1,1,2,1298.04034490057,1299.82514424008,1300.83616250866,1300.84264062141,1301.43413696141,1301.43442403971,defOld,1.01101826858439,defUnshocked,0.59149633999823,1
333,1.72304047205033,sc_178.png,scene,1,1,2,1301.44314021615,1303.17789344503,1305.11330265329,1305.12944422634,1305.63931674759,1305.6396038259,maybeOld,1.93540920826081,maybeUnshocked,0.509872521252873,1
334,1.68573791833459,cl_094.png,clothing,1,1,2,1305.64657730721,1307.34797360659,1308.23343028389,1308.24869764162,1308.67843335542,1308.67871590568,defOld,0.885456677307957,defShocked,0.429735713799346,1
335,1.70913229327306,sc_120.png,scene,0,1,2,1308.68240262715,1310.40046425994,1311.40058291084,,,1311.40089262939,maybeNew,1.000118650903,,,1
336,1.83320076513056,cl_040.png,clothing,1,1,2,1311.41796667867,1313.26949346133,1314.08968646279,1314.10351299533,1314.48870629112,1314.48898853951,defOld,0.820193001467487,defShocked,0.385193295790941,1
337,1.86513961366192,ve_064.png,vehicle,1,1,2,1314.50379313063,1316.37203022531,1317.72785127472,1317.73982372213,1318.34488700254,1318.34517528832,defOld,1.35582104941068,maybeShocked,0.605063280410832,1
338,1.68623759239022,sc_138.png,scene,1,1,2,1318.35697083995,1320.05837861038,1320.82399503726,,,1320.82430415207,maybeNew,0.765616426876477,,,0
339,1.68647408605088,cl_041.png,clothing,1,1,2,1320.84235897676,1322.54375738923,1323.41407347816,,,1323.4143943659,maybeNew,0.870316088933123,,,0
340,1.85671381832397,cl_069.png,clothing,1,1,2,1323.42780703476,1325.29601454619,1327.1662485265,1327.1808816555,1327.946297037,1327.94658230408,maybeOld,1.87023398031124,maybeShocked,0.765415381500588,1
341,1.56976160034814,sc_072.png,scene,1,1,2,1327.9648647387,1329.54944612812,1331.04948372695,1331.06741810553,1331.81752958703,1331.81781787281,defOld,1.50003759882611,maybeUnshocked,0.75011148149224,1
342,1.80980771130601,to_257.png,tool,1,1,2,1331.8346920842,1333.65285348499,1335.53963718253,1335.55441490722,1336.26970237134,1336.27054579593,maybeOld,1.88678369753416,maybeUnshocked,0.7152874641165,1
343,1.58416402064082,ve_068.png,vehicle,1,1,2,1336.28835278541,1337.88965565604,1338.70477422393,1338.72367005826,1339.72882782396,1339.72911429852,defOld,0.815118567888931,maybeShocked,1.00515776569955,1
344,1.81416478314132,cl_195.png,clothing,1,1,2,1339.74116825081,1341.5593317647,1342.76995216871,,,1342.77025826482,maybeNew,1.21062040401284,,,0
345,1.60281064588977,ve_204.png,vehicle,0,1,2,1342.77700292872,1344.39500162163,1345.33007454678,,,1345.33038064289,maybeNew,0.935072925155055,,,1
346,1.72663848174413,ve_198.png,vehicle,1,1,2,1345.34577780469,1347.08043715202,1347.94618262829,1347.96457554731,1350.01527461863,1350.01556169693,maybeOld,0.865745476272878,maybeShocked,2.05069907131747,1
347,1.99300821004468,ve_139.png,vehicle,1,1,2,1350.0329400311,1352.03457073248,1352.960417305,,,1352.96072491046,maybeNew,0.925846572513365,,,0
348,1.72437753732921,sc_224.png,scene,1,1,2,1352.96867856344,1354.70345654565,1355.99354541709,1356.00450086469,1356.73456878635,1356.73485495904,maybeOld,1.29008887143391,maybeUnshocked,0.73006792166052,1
349,1.69939729718146,to_133.png,tool,0,1,2,1356.73844598775,1358.45652211029,1360.4067307939,,,1360.40703990871,maybeNew,1.95020868361053,,,1
350,1.78995658550061,to_050.png,tool,1,1,2,1360.42480373079,1362.22626719623,1363.45686686178,1363.46060761797,1363.80088689386,1363.80117155721,defOld,1.23059966554865,defUnshocked,0.340279275894773,1
351,1.76333565900987,sc_123.png,scene,1,1,2,1363.81090775215,1365.57902757036,1366.59399973134,,,1366.59430763867,maybeNew,1.01497216097141,,,0
352,1.73667491667913,sc_186.png,scene,1,1,2,1366.59651459373,1368.34795398504,1370.46318047143,,,1370.46348928437,maybeNew,2.11522648638993,,,0
353,1.61237996173713,ve_024.png,vehicle,1,1,2,1370.46633831678,1372.0843258405,1373.14931724568,1373.16856536222,1373.65333739852,1373.6536226656,defOld,1.06499140517917,maybeUnshocked,0.484772036298637,1
354,1.51899710315003,ve_123.png,vehicle,0,1,2,1373.66897726374,1375.20348326114,1376.45341920527,1376.47126483409,1377.22144816063,1377.22172980528,maybeOld,1.24993594412626,maybeUnshocked,0.750183326536444,0
355,1.79080066955988,sc_067.png,scene,0,1,2,1377.23854756698,1379.04003155958,1380.19060671329,1380.20765963167,1380.66263106815,1380.6629157315,maybeOld,1.15057515370972,maybeUnshocked,0.454971436482992,0
356,1.53173929207883,cl_033.png,clothing,1,1,2,1380.67469739711,1382.20927795638,1384.94481757245,1384.96154839562,1385.6068633148,1385.60716427913,defOld,2.73553961607195,defShocked,0.645314919187058,1
357,1.53499037957301,to_067.png,tool,1,1,2,1385.61207417757,1387.16334844603,1388.43502445901,1388.44775097751,1388.68798693507,1388.6882728059,defOld,1.27167601298288,defUnshocked,0.24023595755898,1
358,1.61234368140808,ve_223.png,vehicle,1,1,2,1388.69795979604,1390.31594037674,1391.29609576522,,,1391.29640548377,maybeNew,0.980155388474031,,,0
359,1.7490321653475,sc_147.png,scene,0,1,2,1391.30008526224,1393.06820779728,1394.35828549953,,,1394.35859461434,maybeNew,1.29007770224644,,,1
360,1.96546095249117,to_198.png,tool,0,1,2,1394.36926690794,1396.33751773771,1397.72738790437,,,1397.72769641545,maybeNew,1.38987016666761,,,1
361,1.83247301366783,sc_062.png,scene,0,1,2,1397.73868295565,1399.59020641773,1400.68551401658,,,1400.68582464074,maybeNew,1.09530759884092,,,1
362,1.52541524049586,to_116.png,tool,1,1,2,1400.6911088579,1402.22565711709,1403.55063641729,1403.56011934335,1404.08065572187,1404.08094310205,defOld,1.32497930019508,defUnshocked,0.520536378516681,1
363,1.53414901381095,sc_119.png,scene,1,1,2,1404.09388787251,1405.64517029145,1406.94680176352,1406.96291043276,1407.72782018212,1407.72810393986,maybeOld,1.30163147207395,maybeUnshocked,0.764909749362687,1
364,1.90561187505811,cl_012.png,clothing,0,1,2,1407.7301955806,1409.64851984023,1412.44903333701,,,1412.44934154621,maybeNew,2.80051349677569,,,1
365,1.83982509213018,cl_269.png,clothing,0,1,2,1412.4674144831,1414.3189457938,1415.25415063612,,,1415.25445975093,maybeNew,0.93520484231567,,,1
366,1.816539974719,ve_027.png,vehicle,1,1,2,1415.26972620304,1417.10455897465,1419.02531813318,,,1419.02562664425,maybeNew,1.92075915852774,,,0
367,1.54769474366263,cl_184.png,clothing,1,1,2,1419.03946132727,1420.59073619947,1422.5014723706,1422.50898318039,1423.46451745337,1423.46480483354,maybeOld,1.91073617113216,defShocked,0.955534272974091,1
368,1.97962279371773,sc_039.png,scene,0,1,2,1423.47644069597,1425.46141029012,1426.33663629352,,,1426.33694601207,maybeNew,0.875226003397984,,,1
369,1.62911387459987,ve_147.png,vehicle,1,1,2,1426.34546235061,1427.9801306031,1429.23076718734,1429.24785029272,1429.64779023662,1429.64807671119,maybeOld,1.25063658424097,maybeUnshocked,0.399939943902609,1
370,1.8415358017867,cl_110.png,clothing,1,1,2,1429.66486549338,1431.51637688067,1433.21699708846,1433.23444575833,1434.45500553177,1434.45528959137,defOld,1.70062020779733,defShocked,1.22055977343643,1
371,1.80018391303685,to_134.png,tool,1,1,2,1434.46879855674,1436.28696388185,1437.92714791778,1437.93826909197,1438.3332218427,1438.33350650605,defOld,1.64018403593036,defUnshocked,0.394952750734319,1
372,1.74044677714588,sc_036.png,scene,1,1,2,1438.33862409101,1440.09006619915,1441.18634883788,1441.1909728655,1442.12134295896,1442.12163064101,maybeOld,1.09628263872582,maybeShocked,0.930370093464262,1
373,1.70652726593124,sc_106.png,scene,1,1,2,1442.12506409361,1443.84314353672,1444.73349744995,1444.7438690811,1447.78460282218,1447.78489050423,defOld,0.890353913235685,defShocked,3.04073374107929,1
374,1.51942715050436,to_167.png,tool,1,1,2,1447.79638599714,1449.33096142462,1450.73671991149,1450.74880012646,1451.49374872649,1451.49403338983,defOld,1.40575848686694,defShocked,0.744948600022781,1
375,1.88138595502516,cl_002.png,clothing,1,1,2,1451.49941873342,1453.38428131468,1454.97490615618,1454.98559565637,1456.09596203684,1456.09625092636,maybeOld,1.59062484150081,maybeShocked,1.1103663804638,1
376,1.62284272258205,to_102.png,tool,1,1,2,1456.10318154214,1457.73786941618,1458.97308195618,1458.9888845293,1459.34910171055,1459.34938969446,defOld,1.23521253999888,defUnshocked,0.360217181249027,1
377,1.95615919159702,to_259.png,tool,1,1,2,1459.35585965672,1461.32414912584,1462.37424596664,1462.39166505325,1462.67725213837,1462.67753921668,defOld,1.05009684080005,defUnshocked,0.285587085119005,1
378,1.95105493465966,sc_146.png,scene,1,1,2,1462.69190941696,1464.66020582909,1465.97539277052,1465.99461070006,1466.42942446988,1466.42971154819,defOld,1.31518694142869,maybeUnshocked,0.434813769817083,1
379,1.89624796500115,cl_189.png,clothing,1,1,2,1466.44498645266,1468.34656206278,1469.28653826126,1469.29733401966,1469.75256174372,1469.75284761455,defOld,0.939976198481418,defShocked,0.45522772405684,1
380,1.92938469878263,sc_137.png,scene,1,1,2,1469.76438114307,1471.69929557049,1472.64468459875,,,1472.64499371356,maybeNew,0.945389028255249,,,0
381,1.74634993669096,sc_241.png,scene,0,1,2,1472.65008292275,1474.40150903178,1476.18184735343,1476.18630565446,1477.07788606523,1477.0781725398,defOld,1.78033832165374,maybeUnshocked,0.891580410774623,0
382,1.62160786062585,to_217.png,tool,1,1,2,1477.08703119884,1478.72163303995,1479.77202299645,1479.78924254704,1480.09502080639,1480.09531392209,defOld,1.05038995650602,defUnshocked,0.30577825934779,1
383,1.54296676693703,sc_020.png,scene,0,1,2,1480.10609126643,1481.65744703977,1482.81313526641,1482.82507963991,1483.84018371804,1483.84047743749,maybeOld,1.15568822664,maybeUnshocked,1.01510407813203,0
384,1.95686356865623,cl_074.png,clothing,0,1,2,1483.84246342376,1485.81085492491,1487.15138716781,,,1487.15170292376,maybeNew,1.34053224289846,,,1
385,1.821325498188,to_098.png,tool,0,1,2,1487.16196890043,1488.99680076643,1490.84749078165,1490.86500435355,1491.17550355678,1491.17578791826,maybeOld,1.85069001521924,defUnshocked,0.310499203234485,0
386,1.72019641481251,to_038.png,tool,1,1,2,1491.18192310676,1492.91667150572,1494.1916366935,1494.20106890541,1494.55666113742,1494.5569433858,defOld,1.27496518777616,defUnshocked,0.355592232001072,1
387,1.86496773014221,cl_064.png,clothing,1,1,2,1494.56803105243,1496.43623705451,1497.91180024663,1497.92079655836,1498.17581146411,1498.17609642933,defOld,1.47556319211344,defShocked,0.255014905753796,1
388,1.59874924519731,ve_065.png,vehicle,1,1,2,1498.18767644582,1499.80565883775,1501.45596245946,1501.47370213194,1501.84391633977,1501.84419949376,defOld,1.65030362170455,maybeUnshocked,0.370214207830486,1
389,1.79586867091924,sc_114.png,scene,1,1,2,1501.85733957407,1503.65881300122,1504.81411513621,1504.82644137518,1505.46113409515,1505.46141936224,maybeOld,1.15530213499505,maybeUnshocked,0.634692719973827,1
390,1.97243420149508,cl_049.png,clothing,1,1,2,1505.47698375998,1507.46193282698,1509.98234302386,1509.99735560336,1511.59341923545,1511.59370661563,maybeOld,2.52041019688477,maybeShocked,1.59606363208923,1
391,1.64284729226895,cl_146.png,clothing,1,1,2,1511.59865183286,1513.25000081412,1514.61553332116,1514.63447081353,1516.18966306787,1516.18995044805,defOld,1.36553250703491,defShocked,1.55519225433954,1
392,1.7789959082554,sc_220.png,scene,1,1,2,1516.20243758369,1517.98722062222,1520.14774842763,1520.15566163005,1520.65580910953,1520.65609588597,maybeOld,2.16052780541077,maybeUnshocked,0.500147479481711,1
393,1.82577404157095,sc_001.png,scene,0,1,2,1520.67274580799,1522.50759337122,1523.38292684031,,,1523.38322901212,maybeNew,0.875333469094585,,,1
394,1.53877478755552,to_213.png,tool,1,1,2,1523.39165146911,1524.94292754878,1526.1030586971,,,1526.10338139606,maybeNew,1.16013114831867,,,0
395,1.62623691695684,ve_136.png,vehicle,1,1,2,1526.11053841429,1527.74519761068,1528.56516149287,,,1528.5654724189,maybeNew,0.819963882188404,,,0
396,1.6383609609364,cl_225.png,clothing,0,1,2,1528.5792370681,1530.23058544562,1531.42127549103,,,1531.42158158714,maybeNew,1.19069004540643,,,1
397,1.61820193914945,to_004.png,tool,1,1,2,1531.43156923974,1533.0662447371,1534.31140208019,1534.31727735868,1534.84742648335,1534.8477111467,defOld,1.2451573430817,defUnshocked,0.530149124672789,1
398,1.84083819495117,sc_192.png,scene,0,1,2,1534.85105283084,1536.70255908634,1537.26253839408,1537.26966914963,1538.73460169017,1538.73488605165,defOld,0.559979307742196,maybeUnshocked,1.46493254054258,0
399,1.74619938117887,cl_176.png,clothing,1,1,2,1538.73758445096,1540.48899395715,1541.47972475499,,,1541.48003507729,maybeNew,0.990730797847391,,,0
400,1.99402963230219,ve_155.png,vehicle,1,1,2,1541.48980296857,1543.49145208401,1544.43185784341,1544.44222917269,1545.11188960013,1545.11217758404,maybeOld,0.940405759396526,maybeShocked,0.669660427437975,1
401,1.90266615225263,to_193.png,tool,1,1,2,1545.12611761968,1547.04436007255,1548.6550423599,1548.66235242618,1549.35307009269,1549.35335385043,maybeOld,1.61068228734894,maybeUnshocked,0.690717666505407,1
402,1.56378181193391,sc_007.png,scene,0,1,2,1549.36294001601,1550.93089048519,1553.10122876156,1553.11601856106,1553.49125346962,1553.49155201898,maybeOld,2.17033827637306,maybeUnshocked,0.375234908561197,0
403,1.63070052022498,ve_244.png,vehicle,1,1,2,1553.49965147514,1555.134335123,1556.2593515532,1556.26857788982,1557.4784255068,1557.47870956641,defOld,1.12501643019687,maybeShocked,1.20984761698355,1
404,1.74435002555075,cl_071.png,clothing,0,1,2,1557.48625478937,1559.23767486101,1560.14756338137,,,1560.14788638219,maybeNew,0.909888520359345,,,1
405,1.8341261506454,cl_115.png,clothing,1,1,2,1560.15511705669,1562.00663206642,1563.76670918002,1563.77478418471,1564.30072705373,1564.30101292456,maybeOld,1.76007711360035,maybeShocked,0.525942869021947,1
406,1.71178465878183,sc_038.png,scene,0,1,2,1564.30851769695,1566.02659593258,1567.01186016781,,,1567.01217018823,maybeNew,0.985264235225259,,,1
407,1.76828663463045,cl_090.png,clothing,1,1,2,1567.02740856644,1568.81220126481,1571.28302570272,1571.29756374268,1574.10816180832,1574.10844858476,maybeOld,2.47082443790077,defShocked,2.81059806563781,1
408,1.97881924489133,cl_042.png,clothing,1,1,2,1574.1165492484,1576.10150978645,1577.84732414944,1577.85294797028,1578.49335689931,1578.49364307201,maybeOld,1.7458143629915,maybeShocked,0.64040892903131,1
409,1.87469058060266,ve_032.png,vehicle,0,1,2,1578.50344024468,1580.38835414382,1581.56349003905,1581.57264241754,1581.86749811709,1581.86778459165,maybeOld,1.17513589522332,maybeUnshocked,0.294855699551135,0
410,1.78511908796541,to_219.png,tool,1,1,2,1581.87290066726,1583.6743891879,1584.87465334012,1584.89203771168,1585.37267443177,1585.37297479235,defOld,1.20026415221128,defUnshocked,0.480636720082657,1
411,1.63104474848817,cl_065.png,clothing,0,1,2,1585.37574835728,1587.01044890985,1588.63080944913,,,1588.6311140359,maybeNew,1.62036053928068,,,1
412,1.5535943412452,sc_118.png,scene,1,1,2,1588.64511836982,1590.21298340981,1591.23792150476,1591.24723236496,1592.04696250926,1592.04724717261,maybeOld,1.02493809494945,maybeUnshocked,0.799730144298792,1
413,1.5742112201163,sc_017.png,scene,1,1,2,1592.0645811319,1593.64919572701,1594.60407554597,1594.61666229869,1595.42210835018,1595.42239452287,maybeOld,0.954879818958489,maybeShocked,0.805446051486342,1
414,1.54418501195282,to_062.png,tool,1,1,2,1595.43399748148,1596.98525424148,1598.18022299132,1598.1862600721,1598.48624061751,1598.48652890329,defOld,1.19496874984088,defUnshocked,0.299980545408289,1
415,1.90643883056867,to_021.png,tool,1,1,2,1598.50318214588,1600.42139773233,1601.73138013424,1601.73917500364,1601.93939478097,1601.93968155741,defOld,1.30998240190866,defUnshocked,0.200219777330403,1
416,1.51373284924922,sc_140.png,scene,0,1,2,1601.95601904405,1603.47392461008,1604.65451710621,,,1604.65482712664,maybeNew,1.18059249613725,,,1
417,1.54665696734596,sc_176.png,scene,1,1,2,1604.65823099598,1606.20949077468,1607.37963192999,1607.39379112319,1608.12366645184,1608.1239529264,maybeOld,1.17014115530674,maybeUnshocked,0.729875328643175,1
418,1.91292147293985,ve_121.png,vehicle,0,1,2,1608.12773926496,1610.04596451124,1611.24680583877,,,1611.24711434984,defNew,1.20084132752345,,,1
419,1.57026823045472,sc_051.png,scene,1,1,2,1611.26364322202,1612.84827049567,1613.74891606054,,,1613.74922457161,maybeNew,0.900645564871866,,,0
420,1.8160776773395,ve_036.png,vehicle,0,1,2,1613.76568944736,1615.6005258414,1616.7010446209,,,1616.70135011328,maybeNew,1.10051877949991,,,1
421,1.74950652982848,sc_012.png,scene,1,1,2,1616.71811534961,1618.48619320791,1619.42116953468,1619.43700259667,1619.7981767056,1619.79846408578,maybeOld,0.93497632677645,maybeUnshocked,0.361174108937576,1
422,1.85871864481657,cl_191.png,clothing,0,1,2,1619.80397138482,1621.67217044389,1627.38251961777,,,1627.38282480827,maybeNew,5.7103491738776,,,1
423,1.51540073257669,sc_171.png,scene,0,1,2,1627.3935330244,1628.92811599863,1630.06863103495,1630.07905036154,1630.38964948373,1630.38993475081,maybeOld,1.14051503631208,maybeUnshocked,0.310599122182339,0
424,1.59384417126712,cl_214.png,clothing,1,1,2,1630.395984812,1631.99729885182,1633.01276396639,1633.03147173575,1634.01180492561,1634.01209351327,defOld,1.01546511457218,defShocked,0.980333189864723,1
425,1.67449420852813,cl_107.png,clothing,1,1,2,1634.01562960165,1635.70032706005,1636.8859384457,,,1636.8862466549,maybeNew,1.18561138564837,,,0
426,1.74338729756012,ve_237.png,vehicle,0,1,2,1636.90130481677,1638.652749038,1639.57305508975,,,1639.57336299709,maybeNew,0.920306051757507,,,1
427,1.52122665002439,to_031.png,tool,1,1,2,1639.58685294465,1641.12143108896,1642.82719546229,1642.83950932459,1643.22921527401,1643.22950235232,maybeOld,1.70576437333057,maybeUnshocked,0.389705949423842,1
428,1.83995847874981,sc_100.png,scene,0,1,2,1643.23983745721,1645.0913648436,1646.44635997688,,,1646.44666758234,maybeNew,1.35499513327295,,,1
429,1.79262679185055,sc_133.png,scene,1,1,2,1646.45915411424,1648.26060882545,1649.7004994438,1649.71181532411,1650.02652229234,1650.02682114357,maybeOld,1.43989061835555,maybeUnshocked,0.314706968234987,1
430,1.59183095467903,ve_067.png,vehicle,1,1,2,1650.04542235284,1651.64671556364,1653.87669005656,1653.88189005201,1655.49175547932,1655.49203984079,maybeOld,2.22997449291643,maybeShocked,1.60986542730961,1
431,1.53841288479192,sc_248.png,scene,1,1,2,1655.49987304767,1657.05115999467,1657.91686381289,1657.93521386638,1658.46988983257,1658.47017600526,maybeOld,0.8657038182223,maybeUnshocked,0.534675966192935,1
432,1.74172742346783,ve_029.png,vehicle,0,1,2,1658.48566976544,1660.23708591277,1661.08197549722,,,1661.08228098959,maybeNew,0.844889584450812,,,1
433,1.69480457580983,ve_109.png,vehicle,1,1,2,1661.0878067027,1662.78915108045,1663.83410798189,,,1663.8344131724,maybeNew,1.04495690144631,,,0
434,1.74356918410546,sc_027.png,scene,0,1,2,1663.8400493699,1665.59147789389,1666.52223438087,1666.52558512111,1666.87525104258,1666.87553781902,maybeOld,0.93075648697868,maybeUnshocked,0.349665921470205,0
435,1.77249738255156,to_233.png,tool,1,1,2,1666.89252945781,1668.67735294691,1670.1874017602,1670.19527934196,1671.20544211116,1671.20572918946,maybeOld,1.51004881329436,maybeUnshocked,1.01016276919381,1
436,1.64844855157537,ve_018.png,vehicle,1,1,2,1671.21275247931,1672.8640972344,1674.11457473319,1674.13181782963,1674.78160676309,1674.78189323766,defOld,1.25047749878649,maybeUnshocked,0.649788933468244,1
437,1.75222719800113,sc_074.png,scene,1,1,2,1674.79902947215,1676.56714929036,1677.93274851065,,,1677.93305671985,maybeNew,1.36559922029028,,,0
438,1.81444600531439,sc_104.png,scene,0,1,2,1677.95161566733,1679.7697713326,1680.79492345333,,,1680.79522954944,maybeNew,1.02515212073195,,,1
439,1.98710767751187,sc_109.png,scene,1,1,2,1680.8039445184,1682.80560178433,1684.10101624513,,,1684.10132717116,maybeNew,1.29541446079747,,,0
440,1.51884027968807,ve_081.png,vehicle,0,1,2,1684.10666964922,1685.64124658606,1686.62112908411,,,1686.62143699144,maybeNew,0.979882498054394,,,1
441,1.91907710150954,to_047.png,tool,1,1,2,1686.62539147155,1688.56032159621,1689.58026585685,,,1689.58057497166,maybeNew,1.01994426064266,,,0
442,1.94725525639501,cl_059.png,clothing,1,1,2,1689.59448059412,1691.5460989943,1692.91640315937,1692.93054273103,1694.06542245942,1694.06571255643,defOld,1.37030416507059,defShocked,1.13487972839721,1
443,1.54005634523899,sc_154.png,scene,1,1,2,1694.08150788467,1695.63276524841,1696.60357293253,1696.61691919,1697.27660583484,1697.2768914038,maybeOld,0.970807684119336,maybeUnshocked,0.659686644841713,1
444,1.59920035610814,ve_046.png,vehicle,1,1,2,1697.28413324748,1698.90212137494,1700.01271023354,1700.0197132981,1700.28973446011,1700.29001912346,maybeOld,1.11058885860439,maybeUnshocked,0.270021162008106,1
445,1.88403801628139,to_139.png,tool,1,1,2,1700.30326908442,1702.20483533657,1703.78994018447,1703.80613156607,1704.30090727008,1704.3011922353,maybeOld,1.58510484790031,maybeShocked,0.494775704018593,1
446,1.96652803228891,ve_148.png,vehicle,1,1,2,1704.30655312743,1706.29151698605,1707.18309015195,,,1707.18339805928,maybeNew,0.891573165896261,,,0
447,1.73562090310183,sc_261.png,scene,0,1,2,1707.19223709678,1708.9436843367,1709.90915284731,,,1709.90945803782,maybeNew,0.965468510609298,,,1
448,1.84748534903043,sc_187.png,scene,1,1,2,1709.92782680724,1711.77932551599,1713.89932396228,1713.91441200927,1715.93942979788,1715.93971506497,maybeOld,2.11999844629554,maybeUnshocked,2.02501778861188,1
449,1.77975595441962,to_197.png,tool,1,1,2,1715.94942831779,1717.73422192177,1720.84963828435,,,1720.84994739916,maybeNew,3.11541636257789,,,0
450,1.58425865823629,cl_180.png,clothing,1,1,2,1720.85345450803,1722.45476945346,1723.51476189254,1723.52230107811,1723.99878074734,1723.99906510882,defOld,1.05999243908354,defShocked,0.476479669231139,1
451,1.9237802842645,sc_209.png,scene,0,1,2,1724.00602289289,1725.94094033901,1726.0608796188,,,1726.06118722426,maybeNew,0.119939279788923,,,1
452,1.8500882338115,sc_184.png,scene,0,1,2,1726.07438828229,1727.94258462454,1728.7379838409,,,1728.73829114449,maybeNew,0.79539921636615,,,1
453,1.62536903856072,cl_106.png,clothing,1,1,2,1728.74322670188,1730.37792574511,1731.17809239333,,,1731.17840482871,maybeNew,0.80016664822233,,,0
454,1.82367602258812,to_248.png,tool,1,1,2,1731.19523708017,1733.03008977519,1734.42522244041,1734.43124563517,1734.90625429221,1734.90654197426,defOld,1.39513266521453,defUnshocked,0.475008657046146,1
455,1.50159632625209,to_143.png,tool,1,1,2,1734.9149659406,1736.43287512907,1737.30841779403,1737.31693926435,1737.66738672708,1737.66767018295,defOld,0.875542664958175,defUnshocked,0.350447462727971,1
456,1.62693826606954,to_015.png,tool,1,1,2,1737.68390050576,1739.31852649646,1740.0684879486,1740.08586205659,1740.37050006264,1740.37078412225,defOld,0.749961452135267,defUnshocked,0.284638006048681,1
457,1.8337611915806,sc_182.png,scene,0,1,2,1740.38611789136,1742.23767455914,1743.22762894752,1743.238457006,1743.81865284505,1743.81893931962,maybeOld,0.989954388378919,maybeUnshocked,0.580195839044791,0
458,1.85156057491171,sc_216.png,scene,1,1,2,1743.82226923083,1745.69046496933,1746.98079352549,1746.99152981552,1748.33679839767,1748.33707974045,defOld,1.29032855616106,maybeShocked,1.34526858215213,1
459,1.68506773550837,cl_266.png,clothing,1,1,2,1748.34263111251,1750.04401382774,1751.5289678916,1751.54532439605,1752.26002804372,1752.26031361267,maybeOld,1.48495406386837,defShocked,0.714703647665829,1
460,1.99571316727451,ve_112.png,vehicle,1,1,2,1752.2625018518,1754.26416575887,1755.66918557001,1755.68197970738,1756.07719025503,1756.07747491838,maybeOld,1.40501981113994,maybeShocked,0.395210547657371,1
461,1.5644262429274,cl_054.png,clothing,0,1,2,1756.08226769129,1757.65026676153,1758.46529808901,,,1758.46560509073,maybeNew,0.815031327478209,,,1
462,1.51625217559109,to_068.png,tool,1,1,2,1758.46754006099,1760.00219608775,1760.8924132539,1760.90292646205,1761.5134390985,1761.51372406371,defOld,0.890217166155708,defUnshocked,0.610512636446401,1
463,1.9224947523383,sc_057.png,scene,1,1,2,1761.52009289955,1763.45501940176,1764.4005542332,1764.40579407548,1765.14059592144,1765.14088299974,maybeOld,0.945534831433633,maybeUnshocked,0.734801845955189,1
464,1.66578455560319,sc_157.png,scene,1,1,2,1765.15641298431,1766.8411176876,1769.64179026983,1769.66009353347,1770.27482178354,1770.27512123851,maybeOld,2.80067258223062,maybeUnshocked,0.614728250065127,1
465,1.99373876161507,cl_172.png,clothing,1,1,2,1770.27726027284,1772.27891663316,1774.40900417637,1774.41400644702,1774.91402261308,1774.9143084839,defOld,2.13008754320617,defShocked,0.500016166060959,1
466,1.63123924512501,cl_227.png,clothing,1,1,2,1774.93109515301,1776.56576400924,1777.3821890702,1777.39977418527,1777.72115459212,1777.72143925547,defOld,0.816425060960228,defShocked,0.321380406850494,1
467,1.7621014393247,to_129.png,tool,1,1,2,1777.73338121401,1779.50148261816,1780.73728531388,1780.75252127713,1781.00229934328,1781.00258642159,defOld,1.23580269571903,defUnshocked,0.249778066150611,1
468,1.99435506572684,to_196.png,tool,0,1,2,1781.0193830524,1783.02101133882,1784.42645406974,1784.43886634163,1784.70444095952,1784.70474011263,maybeOld,1.405442730917,defUnshocked,0.265574617890707,0
469,1.70879533607087,cl_150.png,clothing,0,1,2,1784.72244869251,1786.44051757017,1788.29062044837,,,1788.29092745009,defNew,1.85010287819932,,,1
470,1.79355441846968,to_093.png,tool,0,1,2,1788.30868644225,1790.11018281151,1792.51581904105,1792.52885075005,1793.67385942219,1793.67414468928,maybeOld,2.40563622954414,defUnshocked,1.14500867213974,0
471,1.68341743166317,sc_011.png,scene,1,1,2,1793.67976730264,1795.38116179079,1796.83206854862,,,1796.83250324133,maybeNew,1.45090675783149,,,0
472,1.85504803265258,sc_195.png,scene,1,1,2,1796.84904328269,1798.71721607908,1799.77712157962,1799.78477547576,1801.0602330134,1801.06051526179,defOld,1.05990550054321,maybeShocked,1.27545753763707,1
473,1.8694718621292,sc_231.png,scene,1,1,2,1801.06916683806,1802.95404058851,1804.05930868767,,,1804.05961810435,maybeNew,1.10526809916018,,,0
474,1.52320049493318,sc_264.png,scene,1,1,2,1804.07160926769,1805.60621488217,1807.16141468326,,,1807.16174643831,maybeNew,1.55519980108784,,,0
475,1.62843251702984,ve_031.png,vehicle,1,1,2,1807.1741176559,1808.80882847205,1809.81956026607,1809.82633602257,1811.05661208355,1811.05689795438,maybeOld,1.01073179401828,maybeShocked,1.23027606098003,1
476,1.75364685002837,cl_152.png,clothing,1,1,2,1811.06068580228,1812.8287693961,1814.08375985039,1814.09649723621,1814.34676825596,1814.34704959874,defOld,1.25499045428933,defShocked,0.250271019751835,1
477,1.60163601775529,to_025.png,tool,0,1,2,1814.36337863302,1815.98138245771,1817.15190608223,1817.16568129687,1817.41090505134,1817.41118790347,defOld,1.17052362451204,defUnshocked,0.245223754467133,0
478,1.88178591153087,to_001.png,tool,1,1,2,1817.41589705841,1819.3007563191,1820.45600502312,1820.46838952298,1820.73804421489,1820.73832918011,maybeOld,1.15524870401714,defUnshocked,0.269654691909182,1
479,1.51532071250199,to_075.png,tool,1,1,2,1820.75194440369,1822.28654488638,1823.43216031708,1823.43747955116,1823.67217770479,1823.6724647831,maybeOld,1.14561543070567,defUnshocked,0.234698153632962,1
480,1.67425403227019,sc_135.png,scene,1,1,2,1823.68769380334,1825.3723867337,1827.10732381739,1827.12383940729,1828.29938222318,1828.29966839588,maybeOld,1.73493708368505,maybeShocked,1.1755428158931,1
481,1.7157849062179,sc_126.png,scene,0,1,2,1828.30814488759,1830.04289087158,1831.75354312287,,,1831.75385223769,maybeNew,1.71065225129041,,,1
482,1.91565544048543,cl_123.png,clothing,1,1,2,1831.76096397543,1833.69588866642,1835.28168630582,1835.29720119689,1835.7377187991,1835.73800557554,maybeOld,1.5857976393977,defUnshocked,0.44051760220691,1
483,1.83078196781872,sc_269.png,scene,1,1,2,1835.74758298689,1837.58240609866,1838.62784569013,1838.6332693712,1839.5139079025,1839.51420675374,defOld,1.0454395914694,maybeUnshocked,0.880638531302338,1
484,1.82678665047255,to_074.png,tool,0,1,2,1839.51732324291,1841.35214756215,1842.42700377488,1842.43638587639,1842.79601742997,1842.79630299893,maybeOld,1.07485621272963,defUnshocked,0.359631553578765,0
485,1.6441129854619,to_054.png,tool,1,1,2,1842.80335526829,1844.45470606077,1845.42513067195,1845.43884490887,1845.95415893754,1845.95444571398,defOld,0.970424611173712,defUnshocked,0.515314028670673,1
486,1.76330427998036,cl_144.png,clothing,1,1,2,1845.97261283428,1847.74073385998,1849.33630665155,,,1849.33661787945,maybeNew,1.59557279157752,,,0
487,1.91000916068866,cl_145.png,clothing,1,1,2,1849.34205212597,1851.26027676852,1852.21041813514,1852.22773488784,1852.62745718352,1852.62774214874,defOld,0.950141366615298,defShocked,0.399722295680931,1
488,1.57960104384849,cl_235.png,clothing,1,1,2,1852.64474435297,1854.2293909463,1855.06455699833,1855.08008124737,1855.28057663195,1855.28086371025,defOld,0.835166052029308,defShocked,0.200495384579881,1
489,1.6596922243593,sc_115.png,scene,0,1,2,1855.29692740086,1856.96495258285,1858.14570295697,,,1858.14601116617,maybeNew,1.18075037411245,,,1
490,1.61651691640679,to_156.png,tool,0,1,2,1858.14925625193,1859.78389793987,1861.37883891768,,,1861.37914712688,defNew,1.5949409778068,,,1
491,1.79297456587901,sc_158.png,scene,1,1,2,1861.38524065733,1863.18672102748,1864.49298499555,,,1864.49329109167,maybeNew,1.3062639680702,,,0
492,1.69586487118487,sc_149.png,scene,1,1,2,1864.5044711305,1866.20585777004,1867.07709516601,1867.08989383142,1868.0401520217,1868.04044936358,maybeOld,0.871237395969274,maybeShocked,0.950258190279783,1
493,1.99998700191281,ve_011.png,vehicle,0,1,2,1868.05738153399,1870.07569568098,1870.97127315154,1870.97642514967,1871.65129162598,1871.65157719493,defOld,0.89557747056142,maybeUnshocked,0.67486647630767,0
494,1.63606759140422,sc_267.png,scene,0,1,2,1871.66032929389,1873.31168431255,1874.63242264206,,,1874.63272873817,maybeNew,1.32073832950209,,,1
495,1.88127656424414,ve_075.png,vehicle,0,1,2,1874.6461085032,1876.53099161162,1878.20158511902,,,1878.20189363009,maybeNew,1.67059350740146,,,1
496,1.80159392115517,ve_241.png,vehicle,0,1,2,1878.21563533718,1880.03383718854,1881.10371616981,,,1881.10402105845,maybeNew,1.06987898126954,,,1
497,1.61293209735226,cl_258.png,clothing,0,1,2,1881.11807369156,1882.73606936577,1885.98692782441,,,1885.98723573174,maybeNew,3.25085845864214,,,1
498,1.93408872347238,to_036.png,tool,1,1,2,1886.00541703993,1887.95702789337,1889.25707273707,1889.27476411036,1889.73504483523,1889.73532466866,maybeOld,1.30004484370465,defUnshocked,0.460280724870245,1
499,1.53373990938822,ve_061.png,vehicle,0,1,2,1889.74181757304,1891.29307855922,1892.16819498383,,,1892.16850228742,maybeNew,0.875116424612315,,,1
500,1.56576810080115,to_208.png,tool,0,1,2,1892.17713394027,1893.76176664758,1894.70731536503,,,1894.70762417797,maybeNew,0.945548717450492,,,1
501,1.64375109603903,sc_260.png,scene,1,1,2,1894.71254433999,1896.36389845305,1897.51444160854,,,1897.5147582701,maybeNew,1.15054315549696,,,0
502,1.76934044304145,ve_179.png,vehicle,1,1,2,1897.53150992229,1899.31633854319,1901.41265951939,,,1901.4129686342,maybeNew,2.09632097620761,,,0
503,1.92639007616855,to_039.png,tool,1,1,2,1901.41805935274,1903.35297076146,1904.32874058354,1904.33711564695,1905.16176455051,1905.16204921386,maybeOld,0.975769822082839,defUnshocked,0.824648903553225,1
504,1.7440071437364,sc_066.png,scene,1,1,2,1905.17112582299,1906.92256883674,1908.37792515739,,,1908.3782342722,maybeNew,1.45535632064821,,,0
505,1.90304260628535,sc_013.png,scene,0,1,2,1908.39044036693,1910.30866833005,1911.39901982833,1911.40957258144,1911.94506782263,1911.94535127849,maybeOld,1.09035149827605,maybeShocked,0.535495241191711,0
506,1.76050292027011,ve_158.png,vehicle,1,1,2,1911.96002697115,1913.72814558189,1914.9931988704,1914.99579825638,1915.34621492837,1915.3464977805,maybeOld,1.2650532885159,maybeShocked,0.350416671994935,1
507,1.51984716340439,cl_102.png,clothing,1,1,2,1915.36281715495,1916.89737567772,1918.01733186222,1918.03165376332,1918.4873732335,1918.48765940619,defOld,1.1199561845051,defUnshocked,0.455719470178337,1
508,1.757268557816,to_232.png,tool,0,1,2,1918.49870903721,1920.26682915729,1923.60758357646,,,1923.60789238941,maybeNew,3.34075441916957,,,1
509,1.60097925206398,to_221.png,tool,0,1,2,1923.61958107907,1925.2375664897,1926.56771984055,,,1926.56802744601,maybeNew,1.33015335085156,,,1
510,1.76944287567566,ve_220.png,vehicle,1,1,2,1926.57200215141,1928.35680420774,1929.68685975274,1929.69122175726,1930.18587429834,1930.18615624486,maybeOld,1.33005554499368,maybeUnshocked,0.494652541085998,1
511,1.98662054130004,ve_047.png,vehicle,1,1,2,1930.1916324513,1932.19325349284,1934.19405587914,1934.21158726137,1934.97714452174,1934.97742888322,defOld,2.00080238630244,maybeShocked,0.765557260369405,1
512,1.9603287282194,ve_208.png,vehicle,0,1,2,1934.99556642027,1936.96384321085,1937.74421443633,,,1937.74452053244,maybeNew,0.780371225476301,,,1
513,1.51997947215774,sc_010.png,scene,1,1,2,1937.7478268978,1939.28243371976,1940.37733077549,1940.38331895334,1940.87837479265,1940.8786564373,maybeOld,1.09489705573196,maybeShocked,0.495055839316592,1
514,1.56640698088113,to_159.png,tool,1,1,2,1940.88373025112,1942.4683702033,1943.60847831895,1943.61930215126,1944.024494632,1944.02477959722,defOld,1.14010811564276,defUnshocked,0.405192480741789,1
515,1.96652107656153,ve_253.png,vehicle,0,1,2,1944.03631765379,1946.02126672078,1947.16661318538,,,1947.1669171684,maybeNew,1.14534646459515,,,1
516,1.72662257653703,sc_166.png,scene,0,1,2,1947.17220832857,1948.90694012468,1949.63273719053,,,1949.63304419225,maybeNew,0.725797065844745,,,1
517,1.63382129757374,sc_215.png,scene,1,1,2,1949.64088494588,1951.29225656739,1952.66286290426,1952.67674166029,1953.47189938071,1953.47218494967,defOld,1.37060633687361,maybeUnshocked,0.795157720419411,1
518,1.88384637533528,cl_072.png,clothing,1,1,2,1953.47737558715,1955.37894938605,1957.63908642083,,,1957.63939463004,maybeNew,2.26013703478202,,,0
519,1.89648192967102,cl_061.png,clothing,0,1,2,1957.64746118237,1959.54903256631,1960.35920680656,,,1960.35951501577,maybeNew,0.810174240251399,,,1
520,1.62041811284389,ve_252.png,vehicle,1,1,2,1960.36634239203,1962.00103479411,1963.32631053058,,,1963.32661390986,maybeNew,1.32527573646939,,,0
521,1.96896021372796,cl_082.png,clothing,0,1,2,1963.33541581736,1965.32041801346,1966.17546733239,,,1966.17577674907,maybeNew,0.855049318925921,,,1
522,1.95567408443247,to_237.png,tool,1,1,2,1966.18778572274,1968.15607670121,1968.98658218333,1968.99008597163,1969.44061931636,1969.44091877133,defOld,0.830505482128956,defUnshocked,0.450533344724136,1
523,1.84231909168474,ve_106.png,vehicle,0,1,2,1969.45713520813,1971.30866742444,1972.90376205404,,,1972.90407056512,defNew,1.59509462960295,,,1
524,1.58793732409365,ve_094.png,vehicle,1,1,2,1972.90996667263,1974.51127890123,1975.9918956979,1975.99583055646,1976.62593153288,1976.62621891306,maybeOld,1.48061679666716,maybeUnshocked,0.630100976418362,1
525,1.56374979016663,cl_255.png,clothing,1,1,2,1976.62967893021,1978.1976363424,1980.00807985063,1980.01579049832,1980.24605116393,1980.24634790208,defOld,1.81044350823186,defShocked,0.230260665613059,1
526,1.55731792677995,ve_015.png,vehicle,1,1,2,1980.24931285255,1981.81723524782,1982.80220002807,1982.81808531355,1983.39821866552,1983.39850061204,defOld,0.98496478025163,maybeUnshocked,0.580133351968925,1
527,1.52688251593966,sc_252.png,scene,1,1,2,1983.40189240659,1984.93647447522,1986.12134477018,1986.13743200664,1986.48737383724,1986.48765850058,maybeOld,1.18487029496237,maybeUnshocked,0.349941830590069,1
528,1.7844265420028,to_101.png,tool,1,1,2,1986.50443943416,1988.30591859683,1989.52650734978,1989.54025720735,1990.38553318532,1990.38581754679,maybeOld,1.22058875295033,defUnshocked,0.845275977965684,1
529,1.89242197661858,sc_169.png,scene,0,1,2,1990.3909487159,1992.29250621382,1993.38266602469,1993.39341378578,1994.03870908342,1994.03899193555,maybeOld,1.09015981086895,maybeShocked,0.645295297641042,0
530,1.64183972895687,sc_159.png,scene,1,1,2,1994.04393896399,1995.69530273688,1997.08083201391,1997.09644863515,1997.40184110472,1997.4021284849,maybeOld,1.38552927702631,maybeUnshocked,0.30539246957278,1
531,1.99589318339903,to_088.png,tool,0,1,2,1997.4133761426,1999.41501529633,2000.43998176706,2000.44917731295,2000.87400854594,2000.87430890652,maybeOld,1.02496647072303,defUnshocked,0.424831232992801,0
532,1.61609593264942,to_240.png,tool,1,1,2,2000.88287777043,2002.51755990894,2003.6481147468,2003.65181837299,2004.15214244638,2004.15242892095,defOld,1.1305548378632,defUnshocked,0.500324073392676,1
533,1.7233415944338,to_224.png,tool,1,1,2,2004.16890858833,2005.90366604339,2007.1293274187,2007.13801763432,2007.43330259291,2007.43360114228,defOld,1.22566137530976,defUnshocked,0.295284958596312,1
534,1.71614886036667,to_026.png,tool,1,1,2,2007.4382622999,2009.17300556707,2010.14340391555,2010.15715648996,2010.28341058688,2010.28369645771,defOld,0.970398348489653,defUnshocked,0.126254096923276,1
535,1.59368444034178,sc_093.png,scene,1,1,2,2010.29058209487,2011.89190036087,2012.90252619854,2012.90940640204,2013.38951756657,2013.38979860747,maybeOld,1.01062583767134,maybeUnshocked,0.480111164528807,1
536,1.98880399936808,ve_043.png,vehicle,0,1,2,2013.39313274487,2015.39476435186,2016.34467629732,,,2016.3449848084,maybeNew,0.949911945466283,,,1
537,1.81166650755394,ve_110.png,vehicle,0,1,2,2016.36223122541,2018.18039775799,2019.10581326024,,,2019.10611845074,maybeNew,0.925415502248597,,,1
538,1.8221472435592,to_218.png,tool,1,1,2,2019.11449894781,2020.94933111568,2021.79991849512,2021.81670063617,2022.22194383106,2022.2222306075,defOld,0.850587379442004,defUnshocked,0.405243194890772,1
539,1.77843566269913,cl_134.png,clothing,0,1,2,2022.2337101013,2024.01850702585,2024.85405101904,,,2024.85435771889,defNew,0.835543993186093,,,1
540,1.97645870362147,sc_110.png,scene,1,1,2,2024.86919159139,2026.85416148741,2028.75922340941,,,2028.75953192048,maybeNew,1.90506192199609,,,0
541,1.91922719209968,sc_213.png,scene,0,1,2,2028.77239126175,2030.70732470698,2031.75732313818,2031.77486206715,2032.07037705064,2032.07065748781,maybeOld,1.04999843120231,maybeUnshocked,0.295514983485646,0
542,1.61609057908495,ve_182.png,vehicle,1,1,2,2032.07511427948,2033.70977709832,2034.73550307379,,,2034.73581158486,maybeNew,1.02572597547487,,,0
543,1.60843583534183,sc_175.png,scene,1,1,2,2034.74395662338,2036.36195682564,2037.65761640482,2037.66302529427,2037.9286316085,2037.92891596998,maybeOld,1.29565957918339,maybeUnshocked,0.265606314233537,1
544,1.52648014996979,cl_187.png,clothing,1,1,2,2037.94659255164,2039.48117280905,2042.34182392832,2042.35019355808,2042.89485417418,2042.89513823379,defOld,2.86065111927837,defShocked,0.544660616106739,1
545,1.88432576452504,sc_121.png,scene,1,1,2,2042.9006518721,2044.80220182327,2046.23301219404,2046.23671280153,2046.67201922308,2046.67230418829,maybeOld,1.43081037076172,maybeUnshocked,0.435306421548376,1
546,1.71169031584977,to_252.png,tool,1,1,2,2046.68708644104,2048.40516195984,2049.68014797664,2049.68954215295,2050.01516262488,2050.0154475901,defOld,1.27498601680145,defUnshocked,0.325620471933689,1
547,1.99141627660292,cl_133.png,clothing,1,1,2,2050.02315763404,2052.02479286347,2053.09530969591,,,2053.09561609389,defNew,1.07051683243844,,,0
548,1.69038882109041,ve_162.png,vehicle,1,1,2,2053.10901276364,2054.81043653318,2055.59040536604,,,2055.59071478272,maybeNew,0.779968832855047,,,0
549,1.61086737946586,ve_134.png,vehicle,1,1,2,2055.59438792005,2057.21237272694,2058.35253397169,2058.36331825904,2058.79854770375,2058.79883448019,defOld,1.14016124475074,maybeUnshocked,0.435229444715333,1
550,1.93101298884885,to_041.png,tool,1,1,2,2058.81367740879,2060.7486461728,2062.30370620811,2062.31657158677,2062.51171632679,2062.51199797143,defOld,1.555060035309,defUnshocked,0.195144740011528,1
551,1.52895908365884,cl_105.png,clothing,1,1,2,2062.51672342735,2064.05130338289,2065.12682672817,,,2065.12713342802,maybeNew,1.07552334528191,,,0
552,1.95672844877609,sc_232.png,scene,1,1,2,2065.13553505598,2067.10381154469,2067.9339547829,,,2067.93426269023,maybeNew,0.83014323820953,,,0
553,1.70308106346193,ve_058.png,vehicle,1,1,2,2067.9378310787,2069.65590840872,2070.64107332873,2070.65671862762,2070.96709527166,2070.96737963314,maybeOld,0.985164920017269,maybeUnshocked,0.310376644041753,1
554,1.56335033649298,cl_261.png,clothing,1,1,2,2070.97364613506,2072.54159388742,2073.74221243493,2073.75926686266,2074.1842282016,2074.18451467616,defOld,1.20061854751293,defShocked,0.424961338933826,1
555,1.62852812128009,sc_075.png,scene,1,1,2,2074.19295766031,2075.82762530906,2076.83834925446,2076.84512802966,2077.6403769148,2077.64066067254,defOld,1.01072394540006,maybeUnshocked,0.795248885139699,1
556,1.91789219891705,cl_221.png,clothing,1,1,2,2077.64577976685,2079.58077207671,2080.5625186216,2080.58152886463,2080.91155090206,2080.91184884769,defOld,0.981746544892303,defShocked,0.330022037431263,1
557,1.9901325580772,to_269.png,tool,0,1,2,2080.91512261109,2082.91675029377,2083.99165993748,,,2083.99196814668,maybeNew,1.07490964370845,,,1
558,1.85430842580863,to_120.png,tool,1,1,2,2084.00098377809,2085.86918464838,2087.07980263744,2087.08686335916,2087.29681331005,2087.29709978462,defOld,1.21061798905339,defUnshocked,0.209949950891314,1
559,1.76104666172302,cl_204.png,clothing,0,1,2,2087.30368928737,2089.07180457754,2090.13694118215,,,2090.13724758014,maybeNew,1.06513660461769,,,1
560,1.8568188411635,ve_212.png,vehicle,0,1,2,2090.13933861714,2092.00755427906,2092.84804863728,,,2092.84835322405,maybeNew,0.840494358221804,,,1
